time[s],gyro_x[deg/s],gyro_y[deg/s],gyro_z[deg/s],height[m]
0,51.64452489,43.83912085,48.70702757,0
0.17,-44.0908785,0.055977977,-4.616091772,-1.455317492
0.29,-32.84434724,36.59321009,31.66932539,-0.964722833
0.42,14.49182151,-39.58668539,28.03241849,0.50718591
0.54,-21.54189529,-31.72530337,49.26652086,1.978411776
0.66,-31.97706103,21.23410237,31.22173076,4.263489372
0.78,29.34729934,-43.64328387,-0.251814951,6.962481035
0.9,52.76356876,40.28609497,-25.29070085,9.908503893
1.03,-2.126189082,2.182167059,-50.581459,13.09913407
1.2,-50.02190842,-27.22111026,-12.67331077,18.25703397
1.32,-35.78190186,25.5425158,-12.16973816,22.67980005
1.45,22.85677614,39.53070741,-20.78650774,26.85749245
1.57,-28.78774875,-23.41626942,-4.9238847,31.52954575
1.69,41.15338118,-13.73643396,52.90348506,36.94092156
1.81,12.36557513,-20.73052976,31.10983211,42.67790295
1.93,-24.47939261,8.868527232,-49.32249884,49.0773253
2.11,18.29660505,-54.0785069,25.17880219,58.76401219
2.23,-20.17103647,-54.88981514,7.693505386,65.42006457
2.35,-34.97059362,28.22825547,32.172898,73.14362606
2.47,-53.26719866,-48.14747699,-28.08833917,81.28939829
2.59,-10.49114371,36.03365951,-11.66616555,90.01145099
2.71,-20.17103647,9.67983547,-50.38562202,99.15780713
2.83,-48.70702757,26.35382404,42.664099,108.3887495
2.95,8.616769577,45.15400169,37.79619228,118.2917705
3.12,40.090258,54.33026456,10.37924505,131.9989156
3.24,56.76424657,5.371479329,-55.25347145,142.4949312
3.36,46.27304556,-25.29070085,-7.917359996,152.7509453
3.48,25.29070085,20.17103647,19.24782958,163.9349734
3.6,21.79365295,-7.805404043,25.43061715,175.2049964
3.72,-3.497047903,37.65633328,-47.19625246,187.1576005
3.84,-48.14747699,9.67983547,-20.03112018,199.1968018
3.96,55.14157279,6.994095805,56.09279733,211.4223927
4.13,-21.79365295,-26.6055817,4.196457483,228.7357213
4.25,-1.622616476,-55.14157279,-48.70702757,242.3197593
4.37,47.0843538,24.17165698,46.83259615,257.0953561
4.49,-15.0513148,-0.559550583,6.74233815,271.639552
4.61,-14.79955714,2.182167059,22.80079816,287.7844446
4.73,-46.52486051,-23.10853379,-43.5873059,302.6176372
4.85,-9.372099838,-51.08503161,-12.86914774,318.5537001
5.03,12.92512572,-32.78842656,-13.93227093,340.9946124
5.15,41.71287447,39.02713481,-2.629761688,357.9174708
5.27,21.29008034,-23.91984203,21.84963093,373.9282605
5.39,-30.91399513,57.01600422,-21.17818169,392.4197922
5.51,18.29660505,-15.10729278,14.54774219,410.6866499
5.63,33.34791985,32.22887598,37.15276068,428.4741165
5.75,-9.67983547,19.0519926,-50.27366607,446.110087
5.87,-18.24062707,-20.17103647,-24.92704454,465.2275785
6.04,40.64980858,23.41626942,57.0719822,491.02335
6.16,55.95293833,-30.15860757,5.679214961,510.2160723
6.28,55.14157279,38.71939918,-54.58207951,529.4401568
6.4,21.79365295,-2.433924714,2.685739665,547.2312416
6.53,5.371479329,51.08503161,46.83259615,565.2316469
6.65,-50.581459,-52.76356876,54.94573582,583.5179133
6.77,22.0454679,38.46764152,-8.728668234,601.9098369
6.89,-28.22825547,-40.34207295,-11.66616555,619.2206911
7.06,-19.0519926,23.10853379,-54.52610153,643.0342177
7.18,26.10200909,3.245290247,48.39929194,661.706238
7.3,21.79365295,-48.95878523,40.90156623,678.6653255
7.42,31.22173076,29.59911429,45.71355228,696.0940388
7.54,-31.72530337,10.74295866,12.86914774,712.2463916
7.66,48.95878523,22.60496119,-30.46634321,729.2062897
7.79,50.581459,20.98234471,48.39929194,745.4065995
7.91,-11.30250924,15.86262304,23.36034874,763.0152742
8.07,-27.72468286,37.65633328,-27.27703094,785.0365125
8.19,2.685739665,-34.15922808,47.22427009,801.5809912
8.31,-41.15338118,1.622616476,4.756008066,818.4889596
8.43,36.59321009,-1.063123189,7.749483362,835.2702827
8.56,33.90747043,-33.65565548,10.49114371,851.1738078
8.68,30.41042253,-47.89571933,-43.78314287,868.0814095
8.8,21.79365295,-13.42869832,-25.29070085,884.7495416
8.97,2.433924714,-46.77661817,50.0778291,905.2320661
9.09,50.581459,-33.90747043,-17.98886941,920.3635813
9.22,49.77009347,53.26719866,-31.22173076,934.983424
9.34,2.433924714,-23.66808438,-46.58078119,949.6229463
9.46,-25.29070085,0.811308238,-53.07136169,964.5493022
9.58,54.0785069,36.59321009,21.73773227,979.0366517
9.7,-36.59321009,-52.45583313,20.1150585,993.4678944
9.83,-5.371479329,-36.84496775,-25.34667883,1007.113604
10,-4.560171091,-50.83321665,24.67522959,1026.215846
10.12,44.65042909,15.86262304,-5.175642355,1039.098897
10.24,56.76424657,-52.70764808,-30.71815816,1052.343051
10.36,49.77009347,18.5483627,-51.95226052,1065.177609
10.48,-51.64452489,48.70702757,-12.92512572,1077.83629
10.6,-54.33026456,46.52486051,-42.77599766,1090.04998
10.73,-40.34207295,33.09616219,-48.70702757,1102.467608
10.85,-55.14157279,50.83321665,8.5607916,1114.433995
11.01,3.497047903,-33.34791985,-17.54121749,1129.587846
11.13,-51.64452489,48.14747699,47.02843312,1141.313781
11.25,6.994095805,-32.53661161,-37.71225396,1152.705452
11.37,55.95293833,-14.79955714,-5.427457306,1163.293296
11.5,-55.14157279,-53.51895632,41.90871145,1174.436569
11.62,-17.48529681,49.77009347,20.1150585,1185.121921
11.74,-34.15922808,7.805404043,-2.741717641,1195.469944
11.91,-52.45583313,-15.86262304,-48.20345497,1209.373656
12.03,-11.30250924,34.97059362,0.755387557,1219.00193
12.15,-48.14747699,-50.83321665,44.34269346,1228.562567
12.28,-11.30250924,-55.95293833,5.875051935,1238.132672
12.4,-49.77009347,-16.67398857,55.89696035,1247.511587
12.52,-39.27894976,26.10200909,-43.89504153,1256.825145
12.65,35.78190186,27.16513228,51.33678926,1265.048455
12.77,-6.182787567,-55.39338775,51.08503161,1274.376175
12.94,-22.85677614,-40.90156623,7.245910756,1285.910472
13.06,-14.79955714,-52.70764808,41.15338118,1294.23123
13.18,55.14157279,38.46764152,-25.0389432,1301.933877
13.31,-6.994095805,-18.29660505,32.78842656,1309.091115
13.43,41.15338118,-43.02781261,-50.32964405,1316.60351
13.55,-20.98234471,13.98824891,56.45651093,1324.046434
13.67,-7.805404043,23.66808438,-44.95816472,1330.942395
13.79,-27.97644052,-9.67983547,-44.95816472,1337.290381
13.93,-4.30835614,-16.67398857,45.15400169,1345.02438
14.05,-47.0843538,-24.47939261,26.85739665,1351.732985
14.18,-25.29070085,-17.48529681,3.189312271,1358.370857
14.3,-41.96468942,-36.84496775,38.97121413,1364.181855
14.42,-42.77599766,-37.65633328,23.36034874,1369.79436
14.54,-21.79365295,-14.79955714,41.65695379,1375.611885
14.67,26.35382404,0,48.6510496,1381.433333
14.83,-14.79955714,-38.46764152,0.503572606,1388.643638
14.96,8.868527232,48.14747699,20.67460908,1393.638348
15.08,36.03365951,-41.96468942,0.503572606,1398.714628
15.2,-11.30250924,34.97059362,29.29132136,1403.159361
15.32,-18.29660505,10.49114371,17.98886941,1407.605347
15.44,-8.616769577,26.35382404,-33.65565548,1411.774293
15.56,-26.10200909,41.15338118,49.46235783,1415.947434
15.73,26.35382404,-0.811308238,38.97121413,1421.03013
15.85,-36.59321009,-26.10200909,-55.44930843,1425.204602
15.98,-5.119664378,54.33026456,0.503572606,1428.82495
16.1,-42.77599766,34.97059362,-30.15860757,1432.167141
16.22,39.53070741,-45.46173733,-37.15276068,1435.307813
16.34,-46.27304556,-7.805404043,30.91399513,1438.298369
16.47,37.65633328,12.36557513,30.10268689,1441.365178
16.59,2.685739665,55.14157279,57.26781917,1443.950836
16.76,-9.428077815,43.83912085,-44.14685648,1447.576703
16.88,-22.60496119,-1.622616476,-12.67331077,1450.088018
17,20.17103647,15.86262304,-4.867906723,1452.321042
17.12,-25.29070085,-4.30835614,-1.370858821,1454.554063
17.25,-33.09616219,33.34791985,36.28547446,1456.508547
17.37,-40.090258,-26.10200909,15.30312975,1457.904669
17.49,-12.11381748,53.51895632,22.29722556,1459.301082
17.61,36.84496775,22.0454679,-39.83850034,1460.773104
17.78,-53.26719866,-11.30250924,39.78252236,1462.653363
17.9,-33.09616219,-8.616769577,1.314880844,1463.49208
18.02,15.86262304,1.063123189,43.27957027,1464.684859
18.14,-7.805404043,-16.42217362,11.80608185,1465.243876
18.26,54.33026456,-40.90156623,15.30312975,1465.802326
18.39,-39.27894976,-5.119664378,46.77661817,1466.082111
18.51,29.85087194,54.33026456,-15.35905043,1466.641305
18.68,-28.78774875,-37.40451833,-56.51243162,1466.361405
18.8,-13.98824891,30.91399513,-49.51833581,1466.361405
18.92,-48.95878523,-9.428077815,-11.86200253,1466.082111
19.05,-39.27894976,50.83321665,12.61739009,1465.523047
19.17,47.33616875,52.70764808,57.26781917,1464.964015
19.29,-42.77599766,51.89633984,-22.35320353,1464.125873
19.41,35.47416622,-53.51895632,32.39675261,1459.655595
19.53,-57.26781917,26.6055817,-35.39022791,1430.925448
19.7,8.448892943,-34.91461564,-1.650634112,1360.409878
19.82,10.99477361,49.12666186,-51.56058658,1381.811623
19.94,-29.15146236,4.140536802,8.197077992,1434.56851
20.07,9.2042805,41.74089211,-52.9314454,1465.898411
20.19,29.76693363,-45.82545093,-3.497047903,1464.85578
20.31,31.5294664,1.398819161,-41.43315648,1465.769434
20.43,-26.68952001,21.37401866,-32.90032522,1453.834557
20.55,17.26149949,-49.04272354,56.87614522,1455.584678
20.71,-14.63168051,0.867286214,-54.97375346,1458.452454
20.83,-52.7915864,-20.98234471,-11.9179805,1460.686731
20.96,-0.727369921,53.79873161,-55.36542741,1460.762145
21.08,45.34983867,-53.60289464,28.06037883,1459.08593
21.2,23.24845009,36.3134348,-25.20676253,1455.17694
21.32,24.22763496,-22.71685984,-3.497047903,1449.036668
21.44,52.81954674,43.27957027,-41.57301547,1447.716989
21.61,-6.238765544,27.16513228,20.98234471,1445.560779
21.73,-8.5607916,25.0389432,-32.70448824,1445.560779
21.85,5.175642355,-43.83912085,-41.34921816,1444.444951
21.98,-54.52610153,38.3837032,-17.06566252,1442.772037
22.1,-19.83528321,41.57301547,-25.96215009,1441.453175
22.22,-31.44552808,45.6575743,-18.80017765,1440.134485
22.34,-35.55804724,-27.72468286,-53.99456858,1439.297704
22.46,41.62899345,-43.08373329,-41.82477313,1437.068149
22.63,33.82353211,29.79495126,19.72338455,1435.396354
22.75,-56.84818488,7.245910756,-23.3323884,1435.396354
22.87,-3.776823194,-57.01600422,46.9444948,1432.888684
22.99,-17.45733647,21.17818169,29.68299531,1429.749358
23.11,25.82229109,-56.87614522,42.27242505,1427.446738
23.23,-15.44298875,52.6516701,24.31151598,1426.33231
23.35,18.71623934,48.70702757,-29.87883228,1424.309694
23.47,-56.2886343,-45.96530993,-14.01620925,1422.082841
23.59,-24.75916791,-45.71355228,-35.58606488,1422.082841
23.72,-9.400117474,-28.84372673,-19.89126118,1421.526105
23.84,-34.18724572,-47.44806741,-17.87697076,1419.022462
23.96,-38.49560186,-49.32249884,36.50927178,1415.405614
24.08,48.62308926,25.48653783,14.43584354,1412.550107
24.2,54.49814119,-16.42217362,48.25937565,1410.04749
24.32,-47.16829212,-33.85149245,-53.04334405,1407.546679
24.49,19.52754757,34.77475664,54.91777548,1407.193392
24.61,-28.75978841,-12.81322706,3.944699828,1407.546679
24.73,-18.21266673,9.316179157,24.64726925,1406.434932
24.85,18.77221731,-54.49814119,-46.69267985,1403.100025
24.97,-9.456038155,14.18408588,54.74989885,1398.656012
25.09,-5.455417646,50.27366607,-11.49834622,1396.158007
25.21,-12.75724908,-15.86262304,-9.959610761,1393.381637
25.33,-16.31027496,2.48990269,-38.3837032,1392.549893
25.5,12.1977558,28.64788976,-22.99663514,1393.179261
25.62,-54.24632624,17.56923513,-36.53723212,1391.161464
25.74,-37.29261967,13.26082169,19.58352555,1387.352865
25.86,40.76170724,-32.34077463,-50.44154271,1382.084946
25.98,52.31597413,32.033039,-52.0082385,1378.758616
26.1,-29.99078824,-41.09740321,24.19961732,1377.095217
26.22,53.68683295,-29.23540068,5.679214961,1377.92629
26.38,-49.99394808,-2.322026056,-45.29386069,1375.432782
26.51,-40.25813463,-46.32902354,-25.85025143,1372.460696
26.63,-35.8098622,-41.32120052,-44.11889614,1369.968526
26.75,-40.48193194,11.19061058,31.22173076,1366.646156
26.87,23.27641043,-54.0785069,-25.85025143,1362.494396
26.99,43.25160993,-23.36034874,-55.72908372,1360.557941
27.11,14.2679669,3.245290247,-44.28671548,1359.375571
27.23,-26.3258637,-50.0778291,50.13380707,1358.82236
27.39,21.20614203,48.03557833,3.189312271,1355.226774
27.51,-28.31219378,47.53200573,-22.35320353,1351.909306
27.64,-47.42010707,-55.70112338,21.12220371,1349.144885
27.76,-14.01620925,39.83850034,-48.39929194,1347.763547
27.88,41.18134153,16.11443799,16.61801059,1346.934341
28,-37.93605128,14.43584354,-39.19501144,1347.210374
28.12,15.8346627,52.6516701,-31.86516237,1345.478247
28.24,20.14307613,52.39991245,-2.517863031,1340.857396
28.41,-53.04334405,-11.86200253,48.76294825,1336.439294
28.53,27.69666523,-19.35972824,54.74989885,1335.812243
28.65,3.776823194,-51.44868792,49.35045918,1335.611598
28.77,-0.02796034,36.48131144,14.9114558,1333.679062
28.89,-3.832801171,-34.52294169,-1.874431427,1331.396225
29.01,41.62899345,-17.79303244,-54.2183659,1328.361333
29.13,-26.94133496,-55.70112338,44.93020438,1325.052491
29.3,-8.085179334,30.91399513,18.35258302,1322.020073
29.42,47.61594404,23.36034874,-34.46702101,1321.74472
29.54,-53.54691666,-3.049453273,37.20868136,1320.365905
29.66,8.840566892,7.44174773,23.02459548,1317.334288
29.78,-37.99202925,54.27434388,-1.650634112,1313.752698
29.9,-32.06099934,-21.54189529,-22.26926521,1310.173049
30.03,-15.07933244,-38.21582657,53.71479329,1308.445424
30.15,56.48447128,-28.28417615,46.07720859,1308.520895
30.32,28.75978841,-4.364334117,47.97960036,1306.794041
30.44,-5.147682015,0.195836974,51.56058658,1303.84188
30.56,-32.06099934,-49.82607144,-23.77998303,1301.089847
30.68,56.4284933,19.86330084,46.86055649,1299.439748
30.8,45.93734959,48.90286455,-20.6186311,1297.239343
30.92,32.20091564,-1.370858821,50.49752068,1294.964039
31.04,-0.02796034,-21.29008034,13.34476001,1293.039169
31.16,36.25751412,35.97773883,8.924505209,1291.38919
31.32,-5.707175302,0.503572606,37.20868136,1290.290038
31.44,24.95500488,56.20469598,48.6510496,1287.816667
31.56,22.01745026,-54.0785069,55.36542741,1284.245486
31.68,-12.14177782,2.937554616,-46.32902354,1282.597999
31.8,-21.82161329,52.70764808,-37.57239497,1281.4993
31.93,-12.39359277,39.78252236,15.77874202,1279.577544
32.05,55.11361245,-51.70050287,-10.01558874,1277.106756
32.21,6.658399833,20.67460908,-2.573841007,1274.087233
32.33,-55.72908372,15.0513148,2.042308061,1271.617766
32.45,10.71499832,15.30312975,-38.04800723,1269.148209
32.58,36.81700741,13.17688337,-4.25243546,1266.954979
32.7,15.33109009,-37.40451833,-15.24715177,1265.309094
32.82,-25.31871849,-4.364334117,-35.75388422,1263.589016
32.94,-29.37525968,3.441127222,46.74865783,1261.745152
33.06,41.62899345,-9.176262864,13.59657496,1259.278554
33.23,-24.50735295,29.03956371,13.42869832,1255.717289
33.35,7.217950416,-18.0447901,-31.97706103,1254.34733
33.47,-6.462562859,13.17688337,-8.952465549,1252.702878
33.59,-31.75326371,-33.15208287,12.75724908,1250.513156
33.71,-53.04334405,35.16643059,-10.21142571,1248.04935
33.84,35.44614859,40.03428002,23.38830908,1245.783755
33.95,-15.94656135,45.15400169,-28.48001312,1243.04725
34.08,17.96090907,6.434602518,-13.45665866,1240.584549
34.24,9.651875129,2.685739665,41.46111682,1238.122535
34.36,42.49622237,-13.4846763,-0.867286214,1237.303424
34.48,3.972660168,50.21774539,-53.07136169,1235.661694
34.6,51.30882892,14.74357917,-54.38624253,1233.47433
34.72,38.69143883,37.0967827,-22.99663514,1230.939698
34.84,56.98804388,-3.804783534,-56.90410556,1228.752752
34.96,12.58942975,-29.90684992,1.091083529,1227.112386
35.13,37.8801306,-8.616769577,-9.092324547,1225.200187
35.25,19.07995294,-15.35905043,-45.93734959,1222.81786
35.37,15.8346627,-20.22695715,15.19123109,1220.633805
35.49,0.223797315,7.497668411,44.48255245,1218.920596
35.61,-4.336373777,-35.5300869,11.38639026,1216.190051
35.73,-46.3010059,22.54904051,-41.01346489,1213.461397
35.86,8.281016309,-16.9817242,49.91000976,1211.899392
35.98,42.74803732,29.85087194,55.14157279,1209.717163
36.14,-17.26149949,-34.77475664,-21.98948992,1206.444587
36.27,48.87484691,33.29199916,-9.539976472,1204.807766
36.39,-28.56395144,13.42869832,28.03241849,1203.171786
36.51,17.70909412,-18.60434068,-51.44868792,1200.644009
36.63,-24.00378035,39.78252236,23.89188169,1197.645667
36.75,-16.19837631,6.434602518,52.23203582,1196.011502
36.87,25.20676253,-42.52424001,16.67398857,1194.10506
36.99,-38.24378691,-43.02781261,-21.82161329,1193.014505
37.15,25.01092556,-16.9817242,53.93859061,1190.836749
37.27,13.70847361,-50.63737968,-17.62515581,1188.658384
37.4,-13.7643943,29.23540068,-5.679214961,1186.480963
37.52,29.26336102,-14.04416959,-55.89696035,1183.955424
37.64,-5.707175302,27.66870488,-42.30038539,1180.96318
37.76,-32.62054992,-47.64390438,9.539976472,1178.242653
37.88,55.86900001,55.39338775,47.44806741,1176.066842
38.05,33.31995951,45.46173733,29.01160336,1174.164074
38.17,-53.54691666,-46.83259615,31.27765144,1172.804905
38.29,-2.713700005,37.60035531,-12.14177782,1170.630819
38.41,-12.7013284,-40.14623597,-19.49958723,1168.184174
38.53,-36.92890607,-4.616091772,-16.78588723,1165.195906
38.65,17.14954354,20.42279413,36.08963749,1162.207823
38.77,-38.24378691,48.39929194,8.336994285,1160.3076
38.89,22.26926521,-43.33554824,40.4539716,1159.4928
39.06,49.74213313,-23.41626942,12.02987916,1157.321506
39.18,35.50212656,54.83383716,19.77936252,1154.878099
39.3,16.64597093,56.14871801,22.40912421,1152.979219
39.42,-23.19247211,-48.20345497,-9.512016132,1150.808709
39.54,-43.36350858,32.78842656,-13.82037227,1147.749308
39.66,4.783968406,57.26781917,-4.756008066,1144.571131
39.78,-28.56395144,-11.05069429,35.30628959,1142.13063
39.91,-24.2555953,-14.54774219,-52.28801379,1141.046791
40.03,-55.98089867,-22.35320353,-32.033039,1139.690799
40.15,26.07404875,-57.0719822,-49.77009347,1137.448259
40.27,-53.54691666,6.126866886,-25.87821177,1135.356367
40.39,16.89778589,32.48069093,-42.41228405,1132.918706
40.51,1.286920504,-57.0719822,-35.97773883,1130.134845
40.64,47.55996607,-51.14095229,37.12474304,1127.698313
40.76,45.93734959,43.27957027,-47.8677017,1125.879123
40.92,37.06882236,22.0454679,49.63023447,1123.714271
41.04,24.45143227,23.91984203,23.27641043,1121.474021
41.16,35.75388422,-1.930352108,-1.958369744,1119.655919
41.28,-2.46194235,32.22887598,4.476232774,1117.417121
41.4,23.89188169,-1.11904387,-28.42409244,1114.71263
41.52,-10.01558874,-14.29598454,27.47286791,1112.279132
41.65,-36.36941278,23.91984203,50.91715497,1109.846876
41.77,-5.958990252,-27.72468286,25.01092556,1108.225238
41.93,15.8346627,38.15990589,56.9320659,1105.869087
42.05,-51.42072758,43.53138522,50.49752068,1103.633254
42.17,16.08647765,3.189312271,23.97582001,1101.277564
42.29,-48.73498791,24.98296522,3.105373954,1098.307233
42.41,-32.06099934,52.1480975,-17.82099278,1096.072445
42.54,18.21266673,-52.76356876,38.60750052,1094.183028
42.66,19.83528321,8.057218994,32.36873497,1092.294626
42.82,-37.93605128,8.057218994,-55.58922472,1089.865783
42.94,-28.50803076,-0.055977977,-30.69019782,1088.517599
43.06,10.46318337,54.52610153,21.34605832,1086.554627
43.18,13.40073798,-5.175642355,19.9751995,1083.857561
43.3,-19.69542421,-53.5749343,-4.895867064,1080.89334
43.43,-2.769677982,31.97706103,7.161972439,1077.928234
43.55,-55.22551111,53.51895632,11.16259295,1075.233397
43.67,23.3323884,-34.15922808,56.70826859,1072.88469
43.79,33.06814455,-16.67398857,25.15084185,1072.271625
43.91,-3.217272611,19.86330084,-2.965514956,1071.193883
44.03,-4.588131432,43.22364959,-6.630439493,1068.771097
44.15,5.595276644,15.24715177,-50.38562202,1066.078622
44.27,47.00047278,23.6121064,19.30375026,1062.580169
44.39,35.69796354,29.29132136,1.482757478,1059.620257
44.51,-32.62054992,-36.59321009,-23.69604472,1057.737522
44.64,-18.88411597,34.97059362,51.92430018,1056.123965
44.8,7.525686047,-54.88981514,26.94133496,1054.510656
44.92,-33.62769514,16.61801059,-38.29976489,1052.897022
45.05,38.43962388,6.378624542,-25.93418975,1050.209206
45.17,-49.2945385,28.17227749,35.83782254,1047.253463
45.29,-56.84818488,6.686360173,30.10268689,1044.297885
45.41,-40.42595397,-29.59911429,-27.55680623,1041.612181
45.53,-43.36350858,-55.95293833,-2.965514956,1039.656279
45.65,-27.19309262,53.51895632,-46.69267985,1038.657621
45.84,-48.17543733,-45.5177153,1.370858821,1036.778654
45.97,35.75388422,16.61801059,0.867286214,1033.826031
46.08,-47.92367968,1.007145212,52.81954674,1030.799619
46.21,-24.81508859,-42.0206101,-20.05913782,1028.116895
46.33,6.910157488,31.97706103,20.78650774,1025.702343
46.45,36.50927178,22.85677614,-15.55488741,1023.557592
46.57,-14.82751748,-27.16513228,-25.57047614,1021.680757
46.75,47.05639346,51.33678926,-2.266105376,1020.87672
46.87,-19.63944623,34.91461564,35.50212656,1018.732955
46.99,-5.958990252,-11.9179805,-32.28485395,1015.517509
47.11,3.972660168,19.30375026,-51.02905363,1012.570865
47.23,-33.43185816,41.65695379,-33.99140875,1010.159984
47.35,3.16135193,12.36557513,-9.959610761,1008.210416
47.47,51.61656455,36.84496775,18.688279,1006.335657
47.59,-4.336373777,-41.46111682,1.035105553,1005.073867
47.77,-53.295159,-26.40980202,13.79241193,1001.862028
47.89,-22.63297882,32.22887598,1.930352108,998.9192133
48.01,26.57762136,24.42347193,-21.48591732,996.2440532
48.13,-2.769677982,-12.42155311,9.008443526,994.1047389
48.25,-1.147061506,-52.20407548,42.52424001,991.9658598
48.37,17.70909412,29.03956371,-2.517863031,990.0946616
48.49,25.51455546,43.27957027,0.615471264,988.68256
48.61,26.3258637,55.6451454,19.77936252,987.0790201
48.79,-47.92367968,-29.09554168,36.34139514,984.4074405
48.91,29.01160336,-30.96991581,46.83259615,981.468364
49.03,5.343518989,16.36625294,-13.82037227,978.9902555
49.15,-55.72908372,-45.76947296,7.721523022,977.1961732
49.27,-25.06690354,-41.46111682,-36.11759783,975.5949524
49.4,26.57762136,53.77077127,-23.6121064,972.85027
49.52,-47.11237144,-30.15860757,-34.29914438,970.4483807
49.7,-6.77029849,-38.77537715,-11.69418319,967.7804467
49.82,28.20029513,31.97706103,25.71033514,965.4556737
49.94,-54.10646724,35.47416622,53.99456858,963.5138021
50.06,-44.42663177,6.686360173,54.8618548,960.8469581
50.18,33.57177446,17.17756118,-56.34455498,958.7148223
50.3,0.475612266,38.97121413,-15.72276404,956.3162459
50.42,23.89188169,27.41694723,24.17165698,954.4512742
50.54,-17.7650721,37.0967827,5.455417646,952.8523661
50.71,-30.43838287,-16.4781516,-32.59258958,950.1900169
50.84,-37.99202925,-51.70050287,13.82037227,947.9830596
50.96,25.51455546,-50.32964405,-5.763153278,945.3213694
51.08,49.99394808,-47.64390438,50.0778291,943.1912304
51.2,1.035105553,-34.46702101,15.0513148,941.3280072
51.32,29.8229116,6.686360173,21.45795698,939.4657756
51.44,-4.336373777,-28.28417615,5.903012276,937.3368169
51.56,-31.2496911,26.04608841,56.96008354,934.6777126
51.73,-33.12412253,40.84564555,41.26527984,931.2960688
51.85,36.81700741,-14.29598454,18.01682976,929.6261871
51.97,49.18258254,3.189312271,-22.43714185,927.7647857
52.09,44.8742264,-45.76947296,-18.18470639,925.1070466
52.21,-36.36941278,0.503572606,51.50466589,922.1855718
52.34,-48.73498791,-39.83850034,-39.05515244,920.3254788
52.5,-45.23794001,-11.86200253,-16.86982555,917.6696073
52.62,-43.61526624,-44.14685648,-31.10983211,916.0768199
52.75,-47.11237144,33.85149245,2.098228742,913.9525627
52.87,-38.24378691,-7.301831437,0.923206895,911.8298652
52.99,20.39483379,-45.76947296,11.75010387,909.6308979
53.11,22.01745026,-9.987571102,34.8866553,906.9777066
53.23,30.88603479,-27.47286791,-12.39359277,905.6509823
53.35,-21.56985563,8.309033945,33.65565548,903.529947
53.47,-4.336373777,-5.679214961,21.401979,900.8782822
53.61,21.20614203,-57.0719822,-45.04210304,899.0219264
53.73,-43.36350858,-3.804783534,7.245910756,897.0910836
53.85,23.08057345,46.77661817,-2.545880667,894.4410281
53.97,55.11361245,-4.867906723,49.12666186,891.8675404
54.1,35.19439093,56.70826859,53.12728237,890.0133262
54.22,47.55996607,17.98886941,13.03702437,888.1589645
54.33,-26.13002673,-32.84434724,7.973280677,886.0401983
54.5,-50.60941934,-7.301831437,21.96152958,883.0524952
54.62,38.69143883,-46.58078119,8.085179334,881.1998197
54.74,-27.50082825,45.96530993,-32.73244858,878.8939887
54.86,-20.50673245,12.61739009,5.371479329,876.2472469
54.98,-42.55220035,48.39929194,-51.98027816,874.0556406
55.1,-16.45013396,16.11443799,30.43838287,872.9979867
55.23,45.68553464,11.80608185,-16.56208991,871.2229159
55.35,-14.01620925,-30.96991581,-4.392294457,868.502908
55.52,45.68553464,12.0578395,50.74927834,865.3311656
55.64,-39.86646068,5.875051935,-50.97307565,862.9529792
55.76,-10.01558874,49.46235783,13.84833261,860.8393253
55.88,-24.2555953,0.251814951,-44.81830572,858.4627065
56,44.8742264,30.10268689,-6.210747908,856.3493801
56.12,24.70318993,-15.35905043,-18.07280773,855.0295276
56.25,-21.56985563,-34.46702101,35.0265143,853.444981
56.37,-52.23203582,-37.15276068,-36.03365951,850.8046564
56.54,10.71499832,-42.27242505,-41.46111682,847.5630608
56.66,-12.14177782,48.6510496,-16.31027496,845.5275657
56.78,-24.2555953,50.52548102,-0.699409581,843.8693363
56.91,-41.74089211,-40.64980858,-10.43522303,841.7589028
57.03,12.33761479,-26.66155967,15.02335446,839.64945
57.15,-5.958990252,44.34269346,18.26864471,837.8037514
57.27,23.3323884,-25.59843648,28.28417615,835.6956435
57.39,-4.895867064,-2.433924714,36.3134348,833.0601802
57.56,56.17673564,35.47416622,23.58414606,829.8222868
57.68,-40.67776892,4.000620509,-39.67062371,828.5807955
57.8,-46.04924825,-39.02713481,52.0082385,826.7370105
57.92,-14.01620925,-13.73643396,-53.01538371,824.103852
58.05,32.00507866,26.04608841,-10.51916134,821.3951875
58.17,-51.42072758,31.66932539,-35.11045262,819.5527365
58.29,33.82353211,0.755387557,-26.10200909,817.4470123
58.46,14.46380388,44.90218674,-45.90938925,813.7636954
58.58,27.38892959,-27.72468286,-18.26864471,811.6592052
58.7,35.19439093,12.61739009,50.30168371,810.6081915
58.82,33.57177446,-54.63800019,4.867906723,809.5562519
58.94,-18.32456539,6.434602518,-15.55488741,807.1892517
59.06,13.96023127,-17.79303244,-42.77599766,804.5609049
59.18,-19.13587362,-2.741717641,-44.0908785,801.8532606
59.3,48.3712743,49.71417278,21.29008034,799.8303855
59.48,-32.87230758,-37.15276068,2.266105376,796.5997391
59.6,34.94257598,-4.056598485,-56.90410556,794.7614613
59.72,7.777443703,33.04018421,51.05701397,792.9223781
59.84,-10.26734639,55.89696035,-55.14157279,791.0848249
59.96,11.77806421,-1.11904387,-19.27578992,788.7231199
60.08,25.51455546,-39.83850034,-50.83321665,786.3608151
60.21,4.2803958,41.65695379,50.44154271,784.5237335
60.33,-42.803958,53.21122069,-33.54375682,782.6869668
60.45,49.99394808,22.54904051,32.14493766,780.5885767
60.57,37.8801306,3.189312271,-46.72069749,778.2280639
60.69,23.89188169,38.15990589,-55.02967414,775.8686302
60.81,6.406584882,-30.96991581,-18.43646404,773.7714806
60.93,32.76040892,52.95940574,21.59781597,771.9372072
61.05,37.8801306,30.10268689,-10.32332437,769.8408259
61.17,-19.94723916,-50.32964405,-40.53790992,767.4821174
61.34,-21.82161329,31.16575279,-49.54629615,764.6012907
61.46,8.029258654,6.686360173,-0.083938317,763.030087
61.58,8.029258654,-51.14095229,35.69796354,760.6728742
61.7,56.98804388,-21.29008034,55.16959043,757.9790844
61.82,52.12013716,50.52548102,1.986330084,755.6996926
61.94,-31.80924169,-21.54189529,12.92512572,753.5309903
62.06,-28.56395144,21.23410237,-34.71877867,751.4381985
62.18,34.13126774,-25.0389432,45.26590035,749.8683601
62.35,46.24508522,-15.91860101,57.23980154,747.7758159
62.47,-39.3069101,-34.21520606,31.78128135,745.9458829
62.59,-54.91777548,41.90871145,29.59911429,743.3319406
62.71,5.595276644,35.72592388,4.672069749,740.7174246
62.83,-43.11169363,54.83383716,-48.39929194,738.6265666
62.95,-4.895867064,15.0513148,24.14369664,736.1997954
63.07,-40.92952657,-10.23938605,-52.7915864,734.1099076
63.24,-21.82161329,-44.95816472,33.68367311,732.09632
63.36,2.098228742,9.372099838,-7.497668411,730.4545316
63.48,31.69734303,-23.16451177,-29.54313631,727.5818415
63.6,36.81700741,20.67460908,-38.80333749,724.9722607
63.72,-21.56985563,18.24062707,27.33300891,722.9599161
63.85,-1.958369744,-45.76947296,55.39338775,721.3188695
63.97,-39.86646068,13.42869832,51.70050287,719.2317732
64.09,-1.398819161,-29.34729934,-36.64913077,717.1451736
64.25,38.69143883,-44.95816472,-13.87635025,714.797988
64.37,-27.7526432,32.78842656,45.20997967,712.9725359
64.49,11.27449161,-16.17041596,-24.87106656,710.8882592
64.61,19.3317106,-30.71815816,18.01682976,708.7268002
64.73,-12.7013284,-25.59843648,49.04272354,706.7173913
64.86,-50.91715497,38.97121413,20.78650774,704.2978846
64.98,-18.63230102,50.02190842,-32.22887598,701.4321518
65.1,-42.803958,2.685739665,-26.52170067,699.6089584
65.27,-33.93543077,51.33678926,11.21857092,698.0472069
65.39,-29.37525968,2.378004033,-5.119664378,695.9646981
65.51,-5.707175302,-41.46111682,-5.231620332,693.1011746
65.63,6.406584882,-19.66746387,17.59719547,690.2396126
65.75,-15.38706807,24.98296522,-40.23011699,688.4177512
65.87,-33.68367311,-56.51243162,-41.71287447,686.8576158
66,-21.82161329,37.90809094,-36.06167715,684.7771686
66.17,42.99979498,-46.58078119,12.02987916,682.3608115
66.29,19.58352555,26.85739665,-3.245290247,680.6164574
66.41,36.00569917,50.27366607,32.90032522,677.9414828
66.53,43.81110321,51.33678926,22.46510219,675.8628415
66.65,40.56587026,5.875051935,0.615471264,674.1200885
66.77,-8.392914966,-40.64980858,-34.55090203,671.9654135
66.89,-13.7643943,47.58792641,-3.077413613,669.6280178
67.01,-33.93543077,-54.63800019,32.39675261,667.2905722
67.18,23.64012404,14.49182151,-41.68491413,664.6944017
67.3,37.8801306,-43.08373329,-20.6186311,662.8779416
67.42,-42.55220035,8.309033945,-6.182787567,660.2822741
67.54,-3.525008243,1.314880844,34.8866553,657.946843
67.66,37.8801306,36.53723212,-54.33026456,656.1320663
67.78,7.217950416,-21.29008034,-18.94003665,654.3160254
67.91,-17.26149949,31.97706103,-13.42869832,652.5007495
68.03,34.13126774,9.120342183,45.88137161,650.0909337
68.19,56.17673564,-46.58078119,39.50274707,647.3149979
68.31,9.092324547,10.18340808,52.17611513,645.1661954
68.43,56.4284933,19.61148589,-26.04608841,643.0932749
68.55,37.8801306,27.41694723,-36.48131144,641.279322
68.67,-13.20490101,50.27366607,-51.86832221,639.2076037
68.79,-17.26149949,35.72592388,36.9569237,637.3954965
68.91,-45.23794001,-30.96991581,28.14431715,634.8805786
69.08,11.77806421,-30.96991581,-10.68698068,631.5158042
69.2,-29.37525968,8.309033945,-15.33109009,629.7037826
69.32,3.972660168,30.10268689,52.56773179,628.0757056
69.44,9.092324547,-13.73643396,2.937554616,626.0054902
69.56,-18.32456539,-7.553646388,-41.40513884,623.6773253
69.69,0.783347898,33.85149245,-1.762532769,621.7914832
69.81,1.846471086,-30.71815816,-35.72592388,619.7229229
69.93,-13.7643943,40.03428002,-30.66218018,617.1380969
70.1,20.39483379,-7.301831437,23.94785967,614.035719
70.22,-6.518540835,-2.182167059,-0.727369921,611.9691829
70.34,1.286920504,-54.88981514,-4.895867064,610.1604128
70.46,-18.88411597,-38.21582657,-37.60035531,608.0936014
70.58,-24.50735295,-4.056598485,-42.18848674,606.2854746
70.71,-8.644729917,42.72001968,-12.81322706,604.7359034
70.83,-49.54629615,28.73182807,-18.15674605,602.4123727
70.95,39.50274707,-42.27242505,-43.27957027,599.5728682
71.11,42.99979498,40.03428002,-7.18993278,596.7336443
71.23,54.55406187,54.02252893,9.931650421,594.6698353
71.35,-44.42663177,-16.9817242,-41.79681279,592.7883648
71.47,-47.92367968,44.34269346,30.77407884,590.9827737
71.59,-53.04334405,-0.307735632,-55.14157279,588.6621705
71.72,-54.91777548,-13.4846763,21.29008034,586.5987874
71.84,-40.92952657,-48.45521262,51.84036187,584.5375352
72.01,-33.12412253,17.17756118,-43.78314287,581.9587457
72.13,6.966135465,36.53723212,-25.37463917,580.1554941
72.25,37.06882236,-7.050073782,-9.847712104,578.0943584
72.37,14.21204622,52.1480975,33.40389782,575.5188288
72.49,14.21204622,45.15400169,-49.65819481,573.4584758
72.61,52.67968774,-9.176262864,-44.48255245,571.5795571
72.73,-53.295159,13.68051327,32.8163869,569.2630712
72.85,26.82943631,-55.19755077,49.40643715,567.2044456
73.02,-31.2496911,32.53661161,-23.55618572,564.3724325
73.14,42.74803732,44.0908785,-32.22887598,562.0574722
73.26,-32.31281429,53.21122069,-27.36096925,560.2569508
73.38,-21.01030505,-11.61024487,-24.64726925,558.1994701
73.5,34.63484035,-49.82607144,1.202982187,555.8847181
73.62,47.81178102,45.96530993,31.55742674,552.7995998
73.74,28.20029513,-20.73052976,57.18388086,550.743611
73.86,-4.084558826,-53.01538371,1.734515133,549.4589395
73.99,-19.13587362,-24.22763496,-19.69542421,547.917496
74.11,9.651875129,38.97121413,-17.93289144,546.042408
74.23,-53.295159,-52.76356876,-1.81845345,543.7312272
74.35,28.20029513,16.36625294,-42.77599766,541.4189817
74.47,46.49684288,10.99477361,19.66746387,539.3655827
74.59,-35.8098622,-3.804783534,-50.35760439,537.5682386
74.72,23.08057345,54.02252893,49.82607144,535.0016753
74.88,-42.30038539,-9.176262864,42.10454842,531.6658852
75,38.69143883,-51.39276724,-21.56985563,529.8698017
75.12,30.63421984,33.5997348,41.88075111,528.0740121
75.24,-55.16959043,-27.47286791,17.03764488,526.5349325
75.36,13.96023127,-23.72406235,-45.04210304,524.227401
75.49,-7.581606728,34.91461564,-42.0206101,522.176122
75.61,-35.55804724,40.84564555,10.18340808,519.6120608
75.73,27.38892959,10.99477361,-30.04670892,517.0502371
75.9,-39.86646068,10.99477361,-19.35972824,514.1527485
76.02,-40.92952657,37.90809094,-15.75072438,512.6946402
76.14,44.62246875,-30.15860757,-29.57109665,510.8232825
76.26,-55.98089867,-41.46111682,33.93543077,509.0300565
76.38,22.01745026,30.35444455,30.32648421,506.469059
76.5,35.44614859,-10.79893664,-36.73306909,503.9091123
76.62,11.77806421,-8.364954626,5.763153278,501.6068698
76.79,4.532210751,42.21644708,-1.34289848,499.047599
76.91,-18.32456539,-9.176262864,-39.8104827,497.0004651
77.03,19.58352555,33.85149245,46.18910725,495.2111258
77.15,11.77806421,-20.47877211,34.15922808,493.1647048
77.27,25.76631312,25.79427346,19.75140218,490.0960585
77.39,42.99979498,53.77077127,28.89970471,488.051223
77.51,30.88603479,34.66280069,-17.31742017,487.0289022
77.63,-18.07280773,-39.83850034,-37.04080472,484.984
77.8,-50.60941934,-22.35320353,-47.28019078,482.0982961
77.92,17.45733647,44.34269346,-50.30168371,480.3097404
78.04,-38.24378691,50.52548102,18.15674605,478.7773253
78.16,-25.87821177,17.17756118,9.176262864,476.4786935
78.28,-28.56395144,1.314880844,55.56126438,473.6705095
78.4,-33.68367311,-7.301831437,-40.53790992,471.8838634
78.53,-2.769677982,-50.32964405,-43.08373329,469.586576
78.65,52.67968774,30.66218018,-33.18010051,467.5449036
78.82,47.30820841,-43.33554824,-0.755387557,465.249153
78.94,-46.55282085,-4.616091772,-46.24508522,463.2088259
79.06,-27.7526432,-12.98110369,-5.119664378,461.4238714
79.18,54.55406187,-17.54121749,-29.90684992,458.6184251
79.3,-11.89002016,54.02252893,-9.623914789,456.2487163
79.42,-27.50082825,45.15400169,49.07068389,454.2853045
79.55,-13.51263664,-47.64390438,-53.21122069,452.247
79.71,-47.67186472,-3.245290247,-15.16321346,449.6228399
79.84,-7.022113441,30.91399513,23.72406235,448.0942227
79.96,54.05048927,-32.59258958,5.483377987,446.8214715
80.08,-46.55282085,13.12096269,11.27449161,444.7839986
80.2,40.56587026,7.18993278,-37.65633328,442.237323
80.32,53.99456858,42.72001968,-33.65565548,439.1827907
80.44,-27.50082825,-41.71287447,2.154206718,436.8923765
80.56,9.092324547,-6.74233815,-32.50865127,434.8567297
80.72,51.05701397,32.53661161,44.00694019,432.8214568
80.84,20.39483379,-52.20407548,-26.10200909,431.2951571
80.96,-52.73560842,-35.5300869,48.62308926,429.183827
81.08,18.26864471,-45.5177153,-24.05975832,426.8960204
81.21,-30.99793345,-40.14623597,-49.0147632,424.099851
81.33,13.65249564,-55.44930843,20.67460908,421.8113773
81.45,7.469708071,-55.70112338,-18.49244202,419.2705163
81.57,-32.31281429,22.0454679,-37.01284438,417.2381019
81.74,-53.85465229,33.85149245,4.364334117,415.9678063
81.86,-19.13587362,9.931650421,38.13188825,413.8600229
81.98,51.61656455,-30.96991581,46.02128791,411.5747421
82.1,22.8288158,52.39991245,5.595276644,409.0356818
82.22,6.658399833,-33.40389782,44.06291816,407.2588923
82.34,-55.22551111,9.120342183,-48.5111906,404.720728
82.46,27.64074454,-53.26719866,38.60750052,401.929597
82.63,-43.86708119,-56.51243162,36.36941278,399.6463182
82.75,22.01745026,47.02843312,47.30820841,398.6321286
82.87,-55.72908372,-0.307735632,36.90094572,396.6029459
82.99,43.25160993,26.85739665,-42.32840303,393.8138519
83.11,-49.2945385,-13.4846763,-50.21774539,391.5321485
83.23,-31.2496911,-53.26719866,12.1977558,389.7581539
83.35,-19.94723916,-5.679214961,26.85739665,387.7311292
83.47,37.8801306,-36.08963749,24.36749396,385.6275226
83.64,-26.94133496,-23.97582001,29.01160336,384.1076935
83.76,-30.43838287,41.65695379,0.755387557,382.0811574
83.88,-5.147682015,30.35444455,-5.483377987,378.9663089
84,-40.11821834,-2.741717641,-7.385769754,376.6876462
84.12,38.13188825,30.35444455,11.10667227,375.1684968
84.24,-32.06099934,-13.73643396,8.113196971,373.3964775
84.37,6.154827227,44.0908785,4.30835614,370.8666527
84.48,-5.958990252,-18.60434068,41.06944287,368.841984
84.65,-53.04334405,2.378004033,4.476232774,366.5659288
84.77,14.46380388,20.67460908,44.67838943,363.783806
84.89,44.8742264,-4.867906723,-53.32311934,361.2550828
85.01,-10.51916134,25.79427346,40.11821834,359.9911606
85.13,40.31405531,-28.28417615,-43.92305917,358.4741939
85.25,-37.43247867,-52.76356876,39.83850034,355.8710944
85.37,34.38308269,17.17756118,-22.80079816,353.4201735
85.49,-39.86646068,38.15990589,51.86832221,351.3225807
85.66,31.69734303,35.22235127,34.77475664,348.5447919
85.78,2.657779324,23.10853379,51.14095229,346.5241676
85.9,20.14307613,16.36625294,44.7343674,344.7573177
86.02,19.3317106,-27.47286791,25.43061715,342.7373779
86.14,57.23980154,-29.90684992,26.6055817,340.212787
86.26,26.82943631,-1.930352108,-15.47100638,337.1855893
86.38,-42.30038539,23.91984203,6.658399833,334.9143623
86.55,-16.70194891,-33.90747043,-1.902391767,333.4014226
86.67,49.74213313,-5.427457306,-10.1274874,330.8794749
86.79,-10.26734639,43.78314287,12.64535043,329.114557
86.91,-1.958369744,-21.29008034,6.602421856,327.3493802
87.04,57.23980154,1.874431427,-42.35636337,324.3251224
87.16,47.55996607,-50.32964405,-19.69542421,321.5523281
87.28,24.95500488,-53.01538371,7.022113441,320.2923485
87.4,-7.581606728,39.53070741,-20.00315984,319.5371087
87.57,-4.336373777,42.46826203,-20.28293513,315.9341138
87.69,-12.95308606,-5.427457306,-11.05069429,313.9204408
87.81,35.19439093,-1.11904387,-44.17481682,312.4856198
87.93,-27.7526432,-33.65565548,-25.73835278,310.1430517
88.06,-1.650634112,21.48591732,46.4409222,307.3749246
88.18,-56.54039196,2.378004033,20.39483379,305.1102683
88.3,-52.23203582,-53.82669195,21.56985563,303.8521347
88.46,-17.26149949,1.314880844,22.24130487,300.8331358
88.58,8.840566892,10.18340808,54.13442758,298.0673038
88.7,-41.74089211,-54.38624253,29.40327731,297.0611312
88.83,31.94910068,17.17756118,-13.84833261,294.7986435
88.95,-47.92367968,12.61739009,8.197077992,292.2086051
89.07,-14.01620925,-54.63800019,20.73052976,290.4496725
89.19,-3.525008243,-36.90094572,9.959610761,288.690569
89.36,-30.99793345,49.71417278,-18.91207631,285.9265647
89.48,33.57177446,-12.67331077,36.84496775,283.4153555
89.6,-27.7526432,42.46826203,-47.83974136,281.3291281
89.72,-51.42072758,-26.66155967,-8.085179334,279.8233968
89.84,-32.31281429,-51.14095229,19.02397497,277.8912418
89.96,7.217950416,-12.42155311,6.574461516,275.8065731
90.08,22.8288158,54.83383716,19.9751995,273.0463562
90.2,4.532210751,-4.616091772,45.88137161,271.0387514
90.37,-22.38116387,-49.26652086,-18.91207631,268.0290839
90.49,56.17673564,7.497668411,-52.34393447,265.5201727
90.61,42.18848674,20.67460908,0.67144924,263.514443
90.73,-20.7585474,-23.97582001,-52.95940574,261.7590103
90.85,-54.10646724,42.46826203,-46.46888254,259.7544838
90.98,-16.45013396,30.35444455,9.539976472,258.0006153
91.1,-4.084558826,3.189312271,-11.19061058,255.4939353
91.22,-39.05515244,42.46826203,-19.24782958,252.9879013
91.39,51.86832221,8.309033945,11.27449161,250.407463
91.51,30.88603479,-9.176262864,-22.63297882,248.4043306
91.63,26.57762136,43.27957027,24.84310622,246.4011093
91.75,-21.56985563,-50.32964405,37.57239497,243.897627
91.87,15.8346627,19.61148589,21.37401866,241.8951163
91.99,-37.43247867,14.49182151,-8.141157311,240.1430441
92.11,42.18848674,32.78842656,21.09424337,238.1418208
92.27,-15.63882572,13.68051327,-3.16135193,235.3896517
92.4,-34.74673901,14.49182151,31.69734303,233.3892701
92.52,29.26336102,-51.95226052,-44.79028808,230.6383468
92.64,14.46380388,-50.32964405,-0.951224531,228.562392
92.76,23.08057345,13.42869832,56.9320659,227.0620022
92.88,-10.26734639,-56.51243162,-48.14747699,225.3122278
93,-7.833421679,50.27366607,-40.64980858,223.1403819
93.12,2.657779324,-50.0778291,51.14095229,221.5643446
93.31,1.035105553,-29.90684992,23.91984203,218.567304
93.43,8.029258654,-18.60434068,13.98824891,216.3188252
93.55,-10.26734639,-15.10729278,-2.154206718,214.0713247
93.67,-30.99793345,-3.804783534,37.82415262,211.8248018
93.79,-32.62054992,54.58207951,-49.51833581,209.5781929
93.91,-46.04924825,25.5425158,44.00694019,207.5813055
94.04,1.035105553,54.58207951,-41.04148253,206.0080521
94.16,-42.803958,47.58792641,55.89696035,204.3382207
94.33,-8.896487572,-30.96991581,-14.60372017,201.2689729
94.46,-1.091083529,-13.23286135,-53.96660824,199.7721947
94.58,37.62831565,16.61801059,-47.95164002,198.026631
94.7,4.2803958,13.93227093,-48.76294825,195.0346585
94.82,32.50865127,56.96008354,22.29722556,192.5413609
94.94,4.783968406,-37.71225396,32.25683632,190.2991881
95.06,-57.09994254,1.314880844,1.986330084,188.056839
95.18,13.65249564,1.063123189,13.12096269,186.3135183
95.35,-12.95308606,-41.71287447,-41.29324018,184.2440758
95.47,15.58290504,9.120342183,5.39943967,182.8261768
95.59,-5.39943967,2.629761688,-10.18340808,180.8339919
95.71,52.67968774,-25.34667883,20.70256942,177.5974802
95.83,22.8288158,39.22297178,-49.96593044,175.0324835
95.95,2.909536979,15.55488741,-43.11169363,173.5397778
96.08,-18.88411597,16.11443799,47.50404539,171.5486015
96.25,-29.37525968,-32.84434724,-51.08503161,167.8168466
96.37,24.70318993,-46.02128791,56.23265632,165.8283487
96.49,-0.839268578,-14.54774219,-35.55804724,164.3363207
96.62,40.31405531,-57.0719822,29.79495126,162.0984691
96.74,-15.63882572,-43.89504153,-47.53200573,159.8611454
96.86,-23.44428706,22.54904051,6.09884925,157.7965105
96.98,36.25751412,10.18340808,54.58207951,155.8092328
97.1,49.99394808,46.77661817,-28.11635681,153.5736732
97.27,-1.398819161,12.86914774,15.97457899,150.84088
97.39,-4.084558826,-2.182167059,19.63944623,149.102283
97.51,57.23980154,-43.33554824,-50.46950305,146.619033
97.63,-18.88411597,12.61739009,-18.43646404,144.1368523
97.76,17.70909412,47.58792641,8.336994285,142.6475741
97.88,46.49684288,-11.05069429,37.57239497,140.6618787
98,55.92492069,-40.64980858,45.99327027,138.9253612
98.12,-47.92367968,-29.90684992,55.56126438,136.4443255
98.29,5.595276644,-20.47877211,20.53469279,133.2197853
98.41,-8.392914966,35.47416622,0.923206895,131.4849274
98.53,-5.707175302,-30.15860757,-4.895867064,129.252546
98.65,49.43439749,16.92574623,12.72928874,127.5171471
98.77,-30.18656792,51.89633984,11.44236824,125.7831552
98.89,-56.79220691,1.063123189,24.78712825,124.2957416
99.01,20.70256942,-23.97582001,-46.60879883,123.5523273
99.18,52.42787279,51.58860421,-29.65503497,120.7500529
99.3,-38.49560186,-0.867286214,23.41626942,118.2729614
99.42,34.38308269,9.623914789,11.21857092,115.5486046
99.55,-18.63230102,-38.77537715,-16.81384757,113.0726394
99.67,46.18910725,-6.74233815,-50.13380707,110.7682239
99.79,-36.36941278,55.95293833,24.08771867,109.1118579
99.91,-57.04396456,-33.09616219,31.55742674,108.1229304
100.03,-8.896487572,27.66870488,31.89318,106.6372848
100.21,29.8229116,-35.83782254,-40.14623597,102.3555524
100.33,51.05701397,39.22297178,-2.433924714,99.95851994
100.45,14.21204622,52.95940574,-2.405964373,98.22712012
100.57,52.12013716,-9.987571102,0.307735632,95.92568999
100.69,10.15544774,-11.05069429,-51.70050287,93.77724006
100.81,43.25160993,24.73120756,3.189312271,92.21856337
100.93,-47.92367968,49.21060018,32.48069093,91.22942706
101.05,-45.74151262,37.90809094,32.34077463,89.91781309
101.21,-5.39943967,-35.83782254,-21.09424337,87.44632951
101.34,-0.839268578,28.98358573,-31.41756774,84.80527459
101.46,-36.36941278,38.41166354,17.03764488,81.76582954
101.58,43.50336758,-16.9817242,2.685739665,79.29662662
101.7,57.23980154,53.51895632,31.69734303,77.07492058
101.82,-14.57575983,-54.88981514,-53.35107969,76.08770175
101.94,16.89778589,1.063123189,2.741717641,75.10056777
102.12,11.83404219,36.28547446,-39.1670511,71.89167694
102.24,21.76569261,56.96008354,-29.90684992,69.99514766
102.36,-33.12412253,-14.85547782,-30.99793345,67.45208219
102.48,-14.32394488,-36.90094572,-54.2183659,65.23266526
102.6,22.52102287,-11.05069429,56.82016725,62.52035416
102.72,24.95500488,33.34791985,39.55872505,60.05467095
102.84,35.19439093,27.16513228,49.35045918,58.57602181
102.96,6.71437781,-51.39276724,47.78376338,58.08288955
103.13,10.71499832,55.33740977,40.090258,55.12628793
103.25,-36.92890607,8.001241017,20.42279413,52.33910578
103.38,1.538678159,-53.82669195,-28.36811447,49.95275134
103.5,-44.98612506,-40.090258,39.64266337,47.98269955
103.62,26.57762136,45.71355228,8.896487572,46.1833015
103.74,-56.54039196,20.42279413,-6.71437781,45.44528018
103.86,-12.7013284,-43.33554824,16.31027496,43.96763286
103.99,25.51455546,-55.70112338,24.81508859,41.25997788
104.12,18.82813799,14.49182151,9.735813446,38.79910457
104.25,48.67900994,18.49244202,21.90555161,37.32318181
104.37,43.81110321,-52.25999616,-56.34455498,35.60136523
104.49,-21.31804068,30.6062595,44.0908785,33.14082677
104.61,-50.10584673,38.97121413,-55.08565211,30.11386299
104.74,-25.62645412,52.70764808,21.34605832,28.14719832
104.86,-10.26734639,15.86262304,-12.33761479,26.74849755
105.03,-49.2945385,46.21712488,37.15276068,25.1973936
105.15,29.45919799,10.43522303,-12.28163682,22.32504481
105.27,-33.73959379,10.79893664,32.70448824,18.39383111
105.39,37.46049631,34.41104303,-10.43522303,15.12421294
105.52,34.80271698,-29.54313631,38.83129783,10.21411838
105.64,-21.37401866,49.46235783,28.14431715,7.023413624
105.76,-29.43123765,53.65881532,14.71561883,8.249967852
105.88,53.79873161,26.91337462,-3.497047903,3.588187174
106.05,3.049453273,-52.48385077,30.57824186,3.74047482
106.17,6.910157488,-43.13971127,-49.0147632,0.137451276
106.3,-35.30628959,56.20469598,50.27366607,0.781232142
106.42,-50.721318,-47.69988236,-15.27516941,-0.368848521
106.54,35.5300869,52.90348506,-25.71033514,-0.5367403
106.66,48.76294825,-11.69418319,-49.21060018,-3.64882158
106.78,49.43439749,52.48385077,-35.89380051,-3.985377227
106.96,36.59321009,19.10791328,17.17756118,-39.23911501
107.08,-17.98886941,-47.33616875,50.69335766,-146.4963203
107.2,17.79303244,0,27.8925022,-237.0437011
107.32,2.993475296,-1.622616476,52.06415918,-266.3657083
107.44,28.5359911,-12.42155311,40.95754421,-246.7593025
107.56,46.02128791,40.28609497,30.6062595,-201.6539731
107.68,-14.79955714,40.53790992,19.1918516,-147.9858726
107.81,6.686360173,-56.31659464,-43.39146892,-96.59198253
107.98,-2.993475296,16.61801059,-2.685739665,-47.42419427
108.1,-32.28485395,41.20930187,-18.10076807,-33.00370203
108.22,-10.23938605,-11.49834622,30.24254589,-21.16628877
108.35,45.71355228,4.867906723,55.53324674,-13.33023877
108.47,55.95293833,-42.52424001,-22.71685984,-9.731403657
108.59,-50.02190842,-8.113196971,41.34921816,-8.58312181
108.71,-8.057218994,-3.804783534,-3.245290247,-8.90301797
108.84,11.30250924,22.0454679,26.66155967,-16.25384979
109.01,-35.78190186,-12.36557513,-33.29199916,-19.0238666
109.13,55.14157279,-51.64452489,52.76356876,-12.57945116
109.25,55.14157279,-27.97644052,-27.16513228,-9.471507284
109.37,-40.090258,0.811308238,-5.679214961,-8.077181045
109.5,3.748862854,7.805404043,30.35444455,-7.832026542
109.62,56.20469598,-37.65633328,50.27366607,-7.663371141
109.74,49.21060018,34.15922808,37.0967827,-7.663371141
109.91,-47.0843538,45.71355228,10.49114371,-7.663371141
110.03,47.33616875,-3.245290247,15.10729278,-7.739874926
110.15,41.15338118,29.03956371,-53.71479329,-7.739874926
110.27,6.994095805,-49.77009347,0.363713608,-7.739874926
110.39,-37.65633328,16.67398857,36.9569237,-7.571218183
110.52,-13.17688337,-4.30835614,47.44806741,-7.571218183
110.64,-9.67983547,23.66808438,21.59781597,-7.326052972
110.76,-6.182787567,-55.14157279,28.28417615,-7.326052972
110.93,17.48529681,35.78190186,-52.45583313,-7.571218183
111.06,-18.29660505,11.30250924,-48.70702757,-7.571218183
111.18,1.874431427,-55.14157279,-54.63800019,-7.646853212
111.3,-8.616769577,27.97644052,2.126189082,-7.402558985
111.43,-28.78774875,37.65633328,3.748862854,-7.402558985
111.55,23.66808438,36.84496775,-16.42217362,-7.157390204
111.67,-11.30250924,8.868527232,-5.931029912,-7.157390204
111.8,2.685739665,-53.26719866,-54.0785069,-7.233897331
111.96,0,-38.46764152,19.35972824,-7.233897331
112.08,34.97059362,48.95878523,-7.805404043,-7.233897331
112.21,34.97059362,-23.66808438,-10.49114371,-7.233897331
112.33,10.49114371,17.48529681,-47.0843538,-7.233897331
112.45,-48.95878523,27.97644052,-4.867906723,-7.555569495
112.58,-34.97059362,10.49114371,-30.15860757,-7.555569495
112.7,34.97059362,6.182787567,37.90809094,-7.800729849
112.87,-20.17103647,36.03365951,-50.83321665,-7.800729849
112.99,7.805404043,-40.90156623,-30.91399513,-7.724226466
113.12,14.79955714,3.748862854,-34.41104303,-7.800729849
113.24,11.30250924,-17.23348186,-17.73705446,-7.800729849
113.36,-43.83912085,-24.22763496,17.23348186,-7.800729849
113.49,-26.35382404,0.251814951,24.22763496,-7.555569495
113.61,-19.35972824,-2.433924714,23.41626942,-7.800729849
113.73,1.622616476,-14.79955714,-26.35382404,-7.876363379
113.91,26.91337462,33.09616219,-40.5938306,-7.876363379
114.03,-44.90218674,37.40451833,-20.67460908,-7.632073992
114.15,-0.251814951,-4.560171091,-25.5425158,-7.632073992
114.28,-5.371479329,-5.371479329,32.78842656,-7.632073992
114.4,41.96468942,32.28485395,5.063743698,-7.632073992
114.52,-27.97644052,-23.66808438,6.686360173,-7.46341568
114.64,27.97644052,55.14157279,-9.428077815,-7.46341568
114.77,-40.34207295,33.34791985,27.97644052,-7.46341568
114.9,-11.5542669,40.34207295,-16.67398857,-7.46341568
115.03,-4.560171091,-35.78190186,-24.47939261,-7.46341568
115.15,29.59911429,-21.79365295,-2.433924714,-7.46341568
115.28,35.78190186,20.17103647,-53.01538371,-7.46341568
115.4,4.30835614,27.16513228,28.22825547,-7.46341568
115.52,-20.17103647,-39.27894976,-27.97644052,-7.46341568
115.65,0.811308238,-12.11381748,50.581459,-7.46341568
115.82,-29.85087194,-51.39276724,-55.39338775,-7.784212116
115.94,-19.35972824,3.748862854,-43.27957027,-7.539920786
116.06,-19.35972824,-54.0785069,4.867906723,-7.539920786
116.19,-8.057218994,20.98234471,40.90156623,-7.539920786
116.31,-52.70764808,-41.15338118,-4.30835614,-7.539920786
116.43,-43.02781261,30.66218018,21.48591732,-7.539920786
116.56,53.26719866,-53.26719866,8.5607916,-7.539920786
116.68,11.30250924,-46.27304556,-25.0389432,-7.616425386
116.85,19.10791328,23.66808438,-9.120342183,-7.692929481
116.97,-15.0513148,-21.79365295,-19.0519926,-7.692929481
117.1,36.59321009,-5.119664378,-54.02252893,-7.616425386
117.22,19.10791328,-47.0843538,-50.27366607,-7.447766846
117.34,-26.35382404,22.85677614,55.14157279,-7.447766846
117.47,25.29070085,55.14157279,43.27957027,-7.447766846
117.59,28.78774875,45.46173733,-35.27832925,-7.447766846
117.76,19.10791328,-47.33616875,42.21644708,-7.523402681
117.88,19.10791328,-26.35382404,-1.063123189,-7.523402681
118,-6.182787567,-27.16513228,33.90747043,-7.523402681
118.13,-17.48529681,34.15922808,-4.560171091,-7.523402681
118.25,-48.14747699,-35.78190186,52.20407548,-7.523402681
118.38,-22.85677614,12.36557513,-51.08503161,-7.523402681
118.5,22.60496119,43.02781261,21.54189529,-7.523402681
118.62,-33.34791985,24.73120756,2.433924714,-7.600776759
118.79,-13.17688337,-5.931029912,-7.805404043,-7.600776759
118.91,52.45583313,-41.96468942,8.057218994,-7.600776759
119.03,55.95293833,35.78190186,57.01600422,-7.600776759
119.16,46.27304556,28.78774875,-47.89571933,-7.600776759
119.28,8.616769577,-30.66218018,15.30312975,-7.677280958
119.4,43.5873059,-55.14157279,26.6055817,-7.677280958
119.52,26.91337462,-13.17688337,31.47348842,-7.677280958
119.65,-56.20469598,46.27304556,-38.71939918,-7.677280958
119.82,-53.51895632,-2.685739665,28.78774875,-7.677280958
119.94,11.30250924,-41.96468942,-48.95878523,-7.677280958
120.06,-31.47348842,46.52486051,9.67983547,-7.753784651
120.19,-6.994095805,51.89633984,26.10200909,-7.753784651
120.31,-27.16513228,-22.35320353,-34.41104303,-7.753784651
120.43,-5.371479329,11.80608185,-5.62329428,-7.99894081
120.56,12.92512572,-49.51833581,-9.931650421,-7.99894081
120.73,10.23938605,-47.0843538,2.433924714,-7.99894081
120.85,27.72468286,9.67983547,-45.46173733,-7.99894081
120.97,51.39276724,-45.46173733,17.73705446,-7.830287839
121.1,-57.01600422,-31.47348842,54.58207951,-7.830287839
121.22,28.78774875,3.497047903,-4.867906723,-7.830287839
121.34,38.46764152,-51.64452489,6.434602518,-7.585128111
121.47,52.45583313,11.30250924,1.063123189,-7.661632413
121.59,53.26719866,25.29070085,-11.30250924,-7.906790522
121.76,33.09616219,7.805404043,-3.497047903,-7.661632413
121.88,40.090258,46.27304556,53.26719866,-7.661632413
122,-8.057218994,39.27894976,10.23938605,-7.830287839
122.12,-52.70764808,-23.66808438,32.033039,-7.661632413
122.25,40.90156623,13.17688337,-12.61739009,-7.906790522
122.37,8.616769577,-19.10791328,32.84434724,-7.906790522
122.49,-41.15338118,8.868527232,-40.5938306,-7.906790522
122.62,55.95293833,23.66808438,-1.063123189,-7.738136209
122.78,52.45583313,27.16513228,-50.581459,-7.661632413
122.9,31.47348842,-49.77009347,30.91399513,-7.98242336
123.02,0,-56.76424657,9.931650421,-7.738136209
123.15,-27.97644052,-25.29070085,-36.34139514,-7.738136209
123.27,-48.95878523,13.17688337,24.98296522,-7.738136209
123.39,31.47348842,-52.45583313,-18.85615563,-7.738136209
123.52,26.10200909,30.66218018,27.16513228,-7.738136209
123.69,6.74233815,11.5542669,-35.47416622,-7.813770148
123.81,-49.21060018,-13.73643396,37.15276068,-8.058925038
123.94,23.41626942,49.21060018,-47.58792641,-8.058925038
124.06,-38.71939918,-5.119664378,-33.5997348,-8.136295539
124.18,-24.73120756,-49.77009347,-31.72530337,-7.891142287
124.31,-50.02190842,12.36557513,4.560171091,-7.891142287
124.43,32.28485395,19.35972824,-43.08373329,-7.891142287
124.59,-44.65042909,-41.15338118,-47.39208943,-7.645983847
124.72,13.98824891,50.581459,53.77077127,-7.645983847
124.84,27.97644052,5.931029912,13.98824891,-7.721618387
124.96,35.78190186,-57.01600422,-54.58207951,-7.721618387
125.09,8.616769577,49.77009347,0.307735632,-7.721618387
125.21,12.11381748,-48.95878523,-0.503572606,-7.721618387
125.33,-5.371479329,-29.59911429,51.39276724,-7.721618387
125.45,49.77009347,-40.90156623,-5.931029912,-7.967644568
125.62,0.811308238,-16.42217362,-36.34139514,-8.044146344
125.75,-13.17688337,-2.433924714,-18.0447901,-8.044146344
125.87,38.46764152,18.5483627,-43.5873059,-8.044146344
125.99,27.97644052,-26.10200909,-28.22825547,-7.798991141
126.12,-6.182787567,-56.76424657,32.59258958,-7.798991141
126.24,-40.34207295,30.66218018,-50.52548102,-7.798991141
126.37,-12.36557513,-24.47939261,52.20407548,-7.798991141
126.53,-50.83321665,-21.79365295,40.5938306,-7.875494031
126.66,18.29660505,19.35972824,50.27366607,-7.875494031
126.78,0.811308238,22.85677614,3.748862854,-7.630335259
126.9,-2.685739665,9.67983547,-15.61086538,-7.630335259
127.03,46.27304556,-6.994095805,19.35972824,-7.630335259
127.15,-5.371479329,-55.14157279,1.874431427,-7.630335259
127.27,46.27304556,-6.182787567,54.33026456,-7.630335259
127.39,-44.65042909,46.27304556,27.16513228,-7.706839263
127.56,45.46173733,22.60496119,-23.66808438,-7.706839263
127.68,0.811308238,28.78774875,-8.868527232,-7.951127073
127.8,0.811308238,13.17688337,29.59911429,-7.706839263
127.92,27.97644052,-12.92512572,42.77599766,-7.951127073
128.05,-55.95293833,-51.39276724,-41.15338118,-7.951127073
128.17,55.14157279,15.86262304,-46.52486051,-8.27364864
128.29,-41.15338118,-32.28485395,-52.1480975,-8.028498294
128.42,33.09616219,-1.622616476,34.21520606,-8.028498294
128.54,-39.53070741,39.53070741,50.32964405,-8.104999668
128.66,43.5873059,5.371479329,-7.805404043,-8.028498294
128.79,50.581459,41.15338118,-11.86200253,-8.028498294
128.91,-22.0454679,-48.14747699,-27.47286791,-7.858976404
129.03,40.90156623,0.811308238,37.0967827,-7.858976404
129.16,-42.21644708,7.805404043,34.15922808,-7.936348241
129.28,26.10200909,0.811308238,-33.90747043,-7.690321396
129.44,-13.98824891,-44.65042909,40.84564555,-7.936348241
129.57,2.685739665,-31.47348842,27.66870488,-7.690321396
129.69,-32.28485395,-28.78774875,-1.370858821,-7.767694359
129.82,22.85677614,22.85677614,-32.28485395,-7.767694359
129.94,43.83912085,-56.76424657,-28.22825547,-8.012850224
130.06,48.14747699,-53.26719866,40.64980858,-7.767694359
130.18,-27.16513228,36.84496775,-2.378004033,-7.767694359
130.31,-2.685739665,-19.10791328,24.78712825,-7.767694359
130.48,-23.66808438,57.01600422,-20.42279413,-8.012850224
130.6,-51.64452489,18.5483627,-37.65633328,-8.012850224
130.72,-30.66218018,45.71355228,-36.59321009,-8.089351701
130.85,-40.34207295,21.23410237,22.85677614,-8.089351701
130.97,19.10791328,43.02781261,-19.10791328,-8.089351701
131.09,-47.33616875,-14.79955714,45.71355228,-8.089351701
131.22,-20.17103647,-13.17688337,-41.71287447,-7.844197455
131.39,-9.67983547,47.0843538,3.748862854,-8.164983347
131.53,56.76424657,-15.86262304,22.0454679,-7.919830702
131.65,-19.35972824,3.497047903,18.29660505,-7.919830702
131.78,-26.35382404,47.33616875,25.85025143,-7.919830702
131.95,46.27304556,19.35972824,-17.17756118,-7.996332793
132.07,14.79955714,-0.811308238,-2.126189082,-7.996332793
132.19,55.95293833,30.66218018,20.17103647,-7.996332793
132.32,-38.46764152,-49.77009347,45.15400169,-7.996332793
132.44,-14.79955714,-21.79365295,55.89696035,-7.996332793
132.56,-39.27894976,-3.497047903,-42.27242505,-7.752045936
132.69,-25.29070085,-47.33616875,8.057218994,-7.831157191
132.81,30.66218018,54.0785069,44.39861414,-7.831157191
132.93,-45.46173733,-50.83321665,1.370858821,-7.831157191
133.06,-10.49114371,48.14747699,1.370858821,-7.831157191
133.18,55.95293833,53.51895632,-32.78842656,-7.831157191
133.3,-54.33026456,-23.41626942,2.182167059,-8.076311712
133.43,-43.02781261,42.21644708,53.01538371,-7.907659868
133.55,-36.03365951,31.72530337,-46.52486051,-7.907659868
133.67,22.60496119,-16.42217362,50.02190842,-7.907659868
133.8,42.77599766,-0.811308238,-40.64980858,-7.907659868
133.92,-44.65042909,18.29660505,4.000620509,-7.907659868
134.09,34.15922808,-36.84496775,44.90218674,-7.907659868
134.21,-4.30835614,42.77599766,-32.28485395,-7.907659868
134.34,55.14157279,-16.67398857,-2.685739665,-7.907659868
134.46,-31.47348842,41.15338118,53.26719866,-7.739005568
134.58,-48.95878523,1.874431427,17.48529681,-7.739005568
134.71,-20.98234471,22.0454679,27.97644052,-7.98416204
134.83,48.95878523,-40.90156623,10.49114371,-7.815508853
134.95,-36.84496775,-37.40451833,33.09616219,-8.060663706
135.08,-25.5425158,-9.428077815,-4.811928747,-8.060663706
135.25,-25.5425158,-40.090258,51.14095229,-8.060663706
135.37,-22.85677614,-14.79955714,-45.71355228,-8.060663706
135.5,21.79365295,-37.65633328,-56.76424657,-8.138034196
135.62,-20.17103647,40.090258,20.42279413,-8.060663706
135.74,-51.64452489,33.90747043,29.29132136,-7.891142287
135.86,13.98824891,37.40451833,-23.97582001,-7.891142287
135.99,-27.97644052,15.61086538,18.80017765,-7.646853212
136.11,-3.497047903,-55.14157279,-37.40451833,-7.891142287
136.28,25.29070085,-35.78190186,-10.74295866,-7.723357106
136.4,-5.371479329,29.03956371,-55.6451454,-7.723357106
136.53,-33.34791985,14.24000656,-23.36034874,-7.968513909
136.65,11.30250924,-41.71287447,30.15860757,-7.968513909
136.77,-27.16513228,31.72530337,-46.52486051,-7.968513909
136.9,-13.17688337,25.5425158,-29.59911429,-7.968513909
137.02,20.98234471,-54.0785069,40.5938306,-7.968513909
137.14,-7.805404043,-1.622616476,-20.47877211,-8.045015679
137.27,-11.30250924,44.65042909,45.96530993,-8.045015679
137.44,45.46173733,53.26719866,34.15922808,-7.799860495
137.56,25.29070085,-1.874431427,17.23348186,-7.799860495
137.68,-27.16513228,53.26719866,-34.41104303,-7.799860495
137.8,48.95878523,32.28485395,-38.71939918,-7.876363379
137.93,55.95293833,0,-13.17688337,-7.876363379
138.05,0.811308238,-25.29070085,-8.616769577,-7.876363379
138.17,-8.868527232,-40.090258,-50.581459,-7.876363379
138.3,-25.5425158,43.02781261,-45.46173733,-8.19714838
138.47,-11.5542669,-19.10791328,6.74233815,-7.876363379
138.59,50.581459,-46.27304556,-17.73705446,-8.19714838
138.71,-12.36557513,-31.47348842,26.10200909,-8.19714838
138.84,35.78190186,20.98234471,44.65042909,-8.19714838
138.96,24.47939261,-11.30250924,41.40513884,-7.952865758
139.08,34.15922808,25.5425158,-0.307735632,-8.19714838
139.2,-24.47939261,24.73120756,48.6510496,-8.032844977
139.33,-9.67983547,8.057218994,-33.90747043,-8.277125912
139.49,-22.85677614,-4.30835614,35.5300869,-8.277125912
139.62,19.10791328,-20.98234471,-3.189312271,-8.277125912
139.74,8.616769577,55.95293833,9.987571102,-8.032844977
139.86,-12.36557513,-2.685739665,16.42217362,-8.032844977
139.99,14.79955714,41.96468942,-53.26719866,-8.032844977
140.11,-55.14157279,-53.26719866,-7.553646388,-8.032844977
140.24,-27.16513228,36.03365951,33.5997348,-8.032844977
140.36,-50.83321665,50.83321665,24.73120756,-8.032844977
140.52,1.622616476,-20.17103647,21.79365295,-7.786820181
140.65,26.10200909,-43.83912085,-38.71939918,-7.786820181
140.77,-1.874431427,42.77599766,-17.73705446,-7.8641925
140.89,-36.84496775,-41.15338118,-29.85087194,-7.8641925
141.02,46.27304556,55.14157279,-16.42217362,-7.8641925
141.14,18.29660505,-18.29660505,-46.83259615,-7.8641925
141.26,28.78774875,-0.811308238,-39.02713481,-7.8641925
141.39,49.77009347,37.65633328,-31.47348842,-7.8641925
141.57,49.77009347,-39.27894976,7.553646388,-7.939825615
141.7,-27.16513228,-54.0785069,-8.309033945,-8.016327575
141.82,-31.47348842,39.53070741,54.63800019,-8.016327575
141.94,17.48529681,15.86262304,1.370858821,-7.939825615
142.06,11.30250924,-35.78190186,-22.85677614,-8.016327575
142.19,53.26719866,22.85677614,-17.23348186,-8.016327575
142.31,49.77009347,-43.5873059,-9.176262864,-7.939825615
142.43,28.78774875,-36.59321009,-15.35905043,-7.939825615
142.61,-41.15338118,40.34207295,40.34207295,-7.770302428
142.73,13.98824891,5.371479329,-19.10791328,-7.770302428
142.86,34.97059362,-12.11381748,24.73120756,-7.770302428
142.98,11.30250924,-4.30835614,-35.78190186,-7.770302428
143.1,-43.02781261,-48.14747699,52.20407548,-7.847674857
143.23,10.23938605,-36.84496775,13.4846763,-8.092829029
143.35,10.23938605,-12.36557513,8.364954626,-8.092829029
143.47,-43.02781261,49.77009347,31.47348842,-8.016327575
143.64,10.49114371,14.79955714,-22.35320353,-8.092829029
143.77,-48.95878523,-30.66218018,-50.32964405,-8.092829029
143.89,48.14747699,-41.96468942,53.77077127,-7.847674857
144.01,20.98234471,50.83321665,-38.46764152,-7.924177425
144.14,25.29070085,-15.61086538,46.83259615,-7.924177425
144.26,49.77009347,-22.60496119,54.63800019,-7.924177425
144.38,-55.14157279,-47.0843538,9.428077815,-7.924177425
144.51,-17.48529681,-15.61086538,-49.77009347,-7.924177425
144.68,52.45583313,-7.805404043,3.748862854,-7.924177425
144.8,-22.85677614,-28.78774875,35.78190186,-8.245830422
144.93,12.92512572,50.02190842,-8.309033945,-8.169329978
145.05,-1.063123189,38.71939918,-37.0967827,-8.245830422
145.17,-57.01600422,-40.90156623,-43.83912085,-8.245830422
145.3,-43.83912085,-19.10791328,18.5483627,-8.245830422
145.42,18.29660505,-14.79955714,20.42279413,-8.245830422
145.55,-23.66808438,-6.994095805,-29.34729934,-8.245830422
145.73,27.97644052,32.28485395,-27.72468286,-8.000679488
145.85,-3.497047903,18.29660505,-39.27894976,-8.000679488
145.97,13.98824891,45.46173733,-46.52486051,-8.322330361
146.09,-20.17103647,48.14747699,-30.10268689,-8.000679488
146.22,32.28485395,-46.27304556,-8.309033945,-8.078050378
146.34,32.28485395,54.33026456,53.01538371,-8.078050378
146.46,-13.17688337,-42.77599766,-24.73120756,-8.322330361
146.59,-2.685739665,30.66218018,-12.36557513,-8.078050378
146.77,-48.14747699,20.17103647,15.86262304,-8.078050378
146.89,-20.17103647,55.14157279,-10.23938605,-7.832026542
147.01,-29.85087194,45.46173733,-40.90156623,-7.832026542
147.13,-39.53070741,13.98824891,-26.91337462,-7.832026542
147.26,-46.52486051,13.17688337,49.21060018,-7.832026542
147.38,-33.34791985,-33.09616219,-43.5873059,-7.832026542
147.51,21.79365295,-22.60496119,-44.65042909,-7.832026542
147.63,18.29660505,-28.78774875,41.71287447,-7.832026542
147.8,-48.14747699,2.685739665,-55.39338775,-8.078050378
147.93,10.49114371,27.16513228,-31.72530337,-7.908529213
148.05,-45.46173733,17.48529681,-36.84496775,-8.078050378
148.17,-42.77599766,-51.64452489,46.52486051,-7.908529213
148.3,-1.622616476,0,-11.61024487,-7.908529213
148.42,-49.77009347,-41.96468942,-46.32902354,-8.153682098
148.55,31.47348842,37.65633328,17.98886941,-8.078050378
148.67,-5.371479329,-56.76424657,-10.74295866,-8.153682098
148.83,-11.5542669,-12.11381748,18.60434068,-8.078050378
148.96,-18.5483627,-49.77009347,-55.6451454,-8.153682098
149.08,47.0843538,27.16513228,-39.78252236,-7.908529213
149.2,-50.83321665,13.17688337,33.09616219,-8.153682098
149.33,31.47348842,22.85677614,-10.23938605,-7.908529213
149.45,44.65042909,-50.581459,0.503572606,-7.908529213
149.57,37.65633328,53.51895632,-38.21582657,-7.908529213
149.69,-17.48529681,-8.616769577,-54.33026456,-7.908529213
149.87,-51.64452489,-14.79955714,0.559550583,-7.98503138
149.99,-20.17103647,-27.97644052,25.0389432,-7.908529213
150.12,11.30250924,41.96468942,-36.03365951,-7.908529213
150.24,35.78190186,-48.14747699,34.15922808,-7.98503138
150.36,25.29070085,-41.15338118,52.70764808,-7.908529213
150.48,-40.34207295,6.994095805,38.71939918,-7.739874926
150.61,-29.85087194,6.994095805,22.0454679,-7.739874926
150.73,-36.84496775,7.805404043,34.15922808,-7.739874926
150.9,-36.84496775,14.79955714,32.28485395,-7.98503138
151.02,56.76424657,51.64452489,42.77599766,-7.98503138
151.14,0.811308238,-40.090258,-40.34207295,-7.98503138
151.27,-34.97059362,-9.428077815,49.77009347,-7.98503138
151.39,-14.79955714,-15.61086538,3.497047903,-7.98503138
151.51,2.685739665,-31.47348842,36.03365951,-7.98503138
151.64,37.65633328,-9.67983547,7.245910756,-7.98503138
151.8,-52.45583313,-27.97644052,51.89633984,-7.98503138
151.93,20.98234471,40.34207295,-7.805404043,-8.230182645
152.05,7.805404043,50.02190842,16.42217362,-7.98503138
152.17,-36.84496775,25.5425158,32.84434724,-8.306682687
152.29,36.59321009,36.03365951,-52.95940574,-8.306682687
152.42,36.59321009,50.02190842,-45.96530993,-8.230182645
152.54,39.27894976,-19.10791328,42.52424001,-7.98503138
152.66,41.96468942,26.35382404,40.090258,-7.98503138
152.82,10.49114371,-53.26719866,50.02190842,-7.98503138
152.95,-17.48529681,-28.78774875,27.41694723,-7.739874926
153.07,-55.14157279,23.66808438,34.41104303,-7.739874926
153.19,-29.85087194,-55.95293833,27.16513228,-7.739874926
153.32,-29.03956371,17.48529681,-18.5483627,-7.816378206
153.44,-46.52486051,-44.65042909,37.40451833,-7.571218183
153.56,35.78190186,55.95293833,-13.98824891,-7.571218183
153.69,-52.45583313,-51.64452489,-32.033039,-7.571218183
153.85,8.868527232,11.30250924,42.46826203,-7.571218183
153.98,-39.27894976,7.805404043,20.42279413,-7.816378206
154.1,13.98824891,20.98234471,-2.685739665,-7.571218183
154.22,28.78774875,-25.29070085,6.74233815,-7.571218183
154.35,56.76424657,-1.622616476,-33.34791985,-7.571218183
154.47,11.30250924,19.35972824,8.868527232,-7.892880981
154.59,25.29070085,-14.79955714,-53.26719866,-7.816378206
154.76,-9.67983547,54.33026456,-3.497047903,-7.892880981
154.88,24.47939261,-43.5873059,3.497047903,-7.892880981
155.01,0,36.84496775,10.49114371,-8.061533041
155.13,17.48529681,48.14747699,-48.95878523,-8.138034196
155.25,52.45583313,0.811308238,1.874431427,-8.138034196
155.37,-9.67983547,42.77599766,-33.34791985,-8.383182224
155.5,7.805404043,0,1.622616476,-8.138034196
155.62,-13.17688337,5.371479329,-3.497047903,-8.138034196
155.79,-51.64452489,39.53070741,-52.45583313,-8.138034196
155.91,-6.182787567,-19.10791328,22.60496119,-8.138034196
156.03,35.78190186,22.85677614,4.056598485,-8.138034196
156.16,14.79955714,5.371479329,-23.91984203,-8.215404169
156.28,-55.14157279,11.5542669,-18.5483627,-8.138034196
156.4,-6.994095805,52.70764808,-46.52486051,-8.138034196
156.53,-24.47939261,-23.41626942,-3.748862854,-7.892880981
156.65,55.95293833,-12.11381748,-23.91984203,-8.138034196
156.82,35.78190186,-31.47348842,-36.03365951,-7.96938325
156.94,46.27304556,-23.66808438,-4.30835614,-7.96938325
157.07,-41.15338118,-22.85677614,-21.54189529,-7.724226466
157.19,-34.97059362,9.428077815,-22.10138858,-7.96938325
157.31,20.17103647,48.70702757,-48.20345497,-7.96938325
157.44,44.65042909,-51.89633984,-48.45521262,-7.96938325
157.56,-44.65042909,-22.0454679,50.02190842,-7.96938325
157.73,8.616769577,-14.79955714,-30.91399513,-7.96938325
157.85,12.11381748,35.22235127,-35.47416622,-7.96938325
157.97,-43.83912085,-39.02713481,13.4846763,-7.96938325
158.1,-16.67398857,-8.364954626,19.66746387,-8.215404169
158.22,-24.47939261,-46.02128791,-44.90218674,-8.045885015
158.34,48.14747699,-51.39276724,-44.65042909,-8.045885015
158.47,44.65042909,-21.79365295,-4.056598485,-8.045885015
158.59,-0.811308238,-55.14157279,-56.26067396,-8.045885015
158.77,-42.77599766,49.77009347,15.55488741,-7.96938325
158.89,-14.79955714,-22.85677614,-9.176262864,-7.96938325
159.01,20.98234471,53.26719866,55.95293833,-7.96938325
159.13,-15.86262304,-20.17103647,2.182167059,-7.96938325
159.25,30.41042253,30.66218018,0.307735632,-7.96938325
159.37,-56.20469598,1.874431427,42.27242505,-8.045885015
159.5,-8.057218994,11.5542669,57.0719822,-8.045885015
159.66,11.30250924,4.560171091,-7.497668411,-8.045885015
159.79,16.67398857,57.01600422,49.77009347,-8.045885015
159.91,1.874431427,12.36557513,-18.85615563,-8.045885015
160.03,-5.119664378,-14.79955714,26.04608841,-7.724226466
160.15,36.84496775,6.182787567,-1.930352108,-7.724226466
160.28,-48.95878523,55.14157279,-46.83259615,-7.800729849
160.4,-9.67983547,55.95293833,-18.29660505,-7.555569495
160.52,-15.86262304,35.78190186,40.090258,-7.800729849
160.69,47.0843538,-30.66218018,-42.21644708,-7.800729849
160.81,-1.874431427,9.67983547,9.428077815,-8.045885015
160.93,-27.16513228,53.51895632,49.77009347,-7.800729849
161.05,0,8.057218994,53.26719866,-8.045885015
161.18,-3.497047903,-5.119664378,-29.03956371,-8.045885015
161.3,55.95293833,-55.95293833,38.21582657,-8.045885015
161.42,45.46173733,-37.65633328,-14.24000656,-8.045885015
161.59,17.48529681,42.77599766,6.182787567,-8.045885015
161.71,6.994095805,11.30250924,-48.70702757,-8.045885015
161.84,-41.96468942,-13.98824891,-35.27832925,-8.045885015
161.96,-55.95293833,-5.119664378,-48.20345497,-8.045885015
162.09,38.46764152,18.5483627,-41.46111682,-7.800729849
162.21,14.79955714,57.01600422,-35.78190186,-8.045885015
162.33,-12.36557513,19.35972824,18.85615563,-8.291034992
162.49,29.59911429,43.83912085,-43.53138522,-9.348076195
162.62,5.119664378,-1.622616476,22.10138858,-8.781319385
162.74,-20.17103647,-22.60496119,-32.78842656,-8.535310483
162.86,-17.48529681,-56.76424657,9.428077815,-8.291034992
162.99,-3.497047903,23.66808438,55.14157279,-8.045885015
163.11,55.95293833,-24.47939261,15.0513148,-8.045885015
163.23,-30.66218018,-13.98824891,15.0513148,-8.045885015
163.35,-13.17688337,-24.47939261,8.868527232,-7.800729849
163.53,38.46764152,-7.805404043,-53.82669195,-7.800729849
163.65,48.14747699,-49.77009347,7.497668411,-7.800729849
163.77,-4.30835614,20.17103647,25.5425158,-7.800729849
163.89,-4.30835614,-9.67983547,36.59321009,-7.800729849
164.01,20.17103647,-46.52486051,55.70112338,-7.800729849
164.14,-45.46173733,-25.5425158,-30.91399513,-7.800729849
164.26,-51.64452489,18.29660505,-34.41104303,-7.800729849
164.38,39.27894976,-4.30835614,-3.748862854,-8.045885015
164.55,25.29070085,7.245910756,21.79365295,-8.122386274
164.68,32.28485395,-24.22763496,39.27894976,-8.122386274
164.8,-19.35972824,56.20469598,49.51833581,-8.291034992
164.92,-57.01600422,-43.5873059,-42.46826203,-8.122386274
165.05,-5.371479329,-39.27894976,-27.41694723,-8.045885015
165.17,41.96468942,16.67398857,-13.73643396,-8.122386274
165.3,6.182787567,-38.46764152,51.58860421,-8.122386274
165.46,-55.95293833,-51.64452489,-35.0265143,-8.122386274
165.59,-9.67983547,-20.98234471,20.42279413,-8.122386274
165.71,-40.34207295,54.33026456,-54.33026456,-8.045885015
165.83,46.27304556,-36.59321009,-37.0967827,-8.045885015
165.95,-34.15922808,5.371479329,-24.98296522,-8.045885015
166.08,-6.994095805,43.83912085,41.46111682,-8.045885015
166.2,-27.97644052,50.83321665,-31.97706103,-8.122386274
166.32,-20.98234471,-39.27894976,-9.120342183,-8.122386274
166.49,17.48529681,-11.30250924,49.77009347,-8.122386274
166.62,24.47939261,30.66218018,11.5542669,-8.045885015
166.74,-51.64452489,0,23.91984203,-8.045885015
166.86,-6.182787567,11.30250924,11.5542669,-8.045885015
166.98,-6.182787567,-12.36557513,-42.77599766,-8.045885015
167.11,55.95293833,43.5873059,-18.29660505,-8.122386274
167.23,24.47939261,-26.35382404,22.85677614,-8.045885015
167.35,41.96468942,-34.15922808,57.01600422,-8.122386274
167.52,-30.66218018,12.36557513,-19.10791328,-8.045885015
167.65,28.78774875,53.51895632,-42.77599766,-8.045885015
167.77,1.622616476,1.874431427,16.42217362,-8.122386274
167.89,-1.063123189,-18.29660505,-44.34269346,-8.045885015
168.02,23.41626942,-7.805404043,-26.85739665,-8.291034992
168.14,56.76424657,22.85677614,47.89571933,-8.291034992
168.26,51.64452489,-40.090258,-33.90747043,-8.291034992
168.43,-28.78774875,46.52486051,39.78252236,-8.291034992
168.56,-11.30250924,-47.89571933,41.40513884,-8.045885015
168.68,2.685739665,-47.89571933,-0.811308238,-8.045885015
168.8,-6.994095805,12.36557513,-7.245910756,-8.045885015
168.93,41.96468942,0,-51.08503161,-8.045885015
169.05,-10.49114371,-41.15338118,28.78774875,-8.045885015
169.17,-34.97059362,-37.65633328,30.91399513,-8.291034992
169.3,55.95293833,32.28485395,16.11443799,-8.291034992
169.46,25.29070085,-13.17688337,53.77077127,-8.045885015
169.59,-6.182787567,16.67398857,-14.54774219,-8.045885015
169.71,4.30835614,-33.09616219,-45.46173733,-8.045885015
169.83,28.78774875,-5.931029912,-4.000620509,-8.045885015
169.95,11.30250924,-12.92512572,52.51181111,-7.724226466
170.08,55.95293833,-50.581459,-54.02252893,-7.724226466
170.2,48.95878523,-18.29660505,-35.47416622,-7.800729849
170.32,-41.96468942,-31.47348842,-29.85087194,-8.045885015
170.45,-25.29070085,-41.96468942,-9.987571102,-8.045885015
170.57,22.85677614,-55.14157279,-41.76885245,-7.96938325
170.7,19.35972824,-46.52486051,-15.41502841,-8.045885015
170.82,-38.46764152,-14.24000656,-45.76947296,-8.045885015
170.94,1.622616476,3.245290247,45.76947296,-7.96938325
171.06,-56.20469598,-46.52486051,39.33487044,-8.045885015
171.19,54.88981514,-3.497047903,-29.54313631,-8.291034992
171.36,-39.53070741,37.90809094,25.0389432,-8.215404169
171.48,49.77009347,-26.66155967,0,-8.215404169
171.6,-37.65633328,-34.46702101,50.02190842,-8.215404169
171.73,17.48529681,28.48001312,-8.616769577,-8.458811951
171.85,48.14747699,-35.5300869,52.70764808,-8.458811951
171.97,13.17688337,22.85677614,-20.98234471,-8.458811951
172.09,51.64452489,53.26719866,19.66746387,-8.215404169
172.21,-14.79955714,-57.01600422,4.056598485,-8.215404169
172.39,57.01600422,54.0785069,-14.54774219,-7.96938325
172.51,15.86262304,-18.5483627,48.6510496,-7.96938325
172.63,-13.98824891,-15.0513148,49.21060018,-7.96938325
172.75,-1.874431427,8.616769577,-52.70764808,-7.892880981
172.88,-25.5425158,-55.14157279,-31.72530337,-7.892880981
173,-18.5483627,-4.30835614,-42.21644708,-7.892880981
173.12,1.622616476,22.85677614,8.616769577,-7.892880981
173.29,14.79955714,-53.26719866,-17.48529681,-8.138034196
173.41,-44.65042909,-21.79365295,-53.26719866,-7.892880981
173.54,20.98234471,-46.27304556,-5.931029912,-8.138034196
173.66,31.47348842,36.84496775,35.22235127,-8.138034196
173.79,13.98824891,-53.26719866,10.74295866,-8.138034196
173.91,-41.96468942,-28.78774875,-37.40451833,-7.892880981
174.03,30.66218018,29.85087194,-33.09616219,-8.138034196
174.16,30.66218018,12.36557513,10.49114371,-8.138034196
174.32,24.47939261,37.65633328,-13.42869832,-8.383182224
174.44,-16.67398857,0,26.66155967,-8.383182224
174.56,46.27304556,-3.497047903,-17.17756118,-8.383182224
174.69,0.811308238,-48.95878523,-1.314880844,-8.383182224
174.81,3.497047903,44.65042909,16.42217362,-8.383182224
174.93,-27.97644052,37.65633328,28.78774875,-8.306682687
175.05,-17.48529681,-49.77009347,-45.46173733,-8.383182224
175.18,6.994095805,53.51895632,22.0454679,-8.138034196
175.35,-30.66218018,43.02781261,-29.59911429,-8.138034196
175.47,-23.66808438,8.868527232,-2.433924714,-8.061533041
175.59,-13.17688337,48.14747699,-30.41042253,-8.138034196
175.72,-27.16513228,-27.97644052,50.02190842,-8.061533041
175.84,31.47348842,34.15922808,-46.27304556,-8.061533041
175.96,3.497047903,-4.30835614,-21.79365295,-8.061533041
176.09,-23.66808438,-25.29070085,15.61086538,-8.306682687
176.25,-40.34207295,27.16513228,10.23938605,-8.061533041
176.38,40.090258,48.14747699,13.73643396,-7.98503138
176.5,19.10791328,55.14157279,-54.33026456,-7.98503138
176.62,46.27304556,-21.79365295,53.51895632,-7.98503138
176.74,24.47939261,-1.622616476,51.89633984,-8.061533041
176.87,24.47939261,47.33616875,56.20469598,-8.061533041
176.99,14.79955714,-34.97059362,27.97644052,-7.98503138
177.11,-29.85087194,48.95878523,-51.08503161,-7.98503138
177.28,-6.182787567,-25.29070085,-51.89633984,-7.739874926
177.4,13.98824891,-1.622616476,4.30835614,-7.98503138
177.53,34.15922808,43.83912085,52.70764808,-7.98503138
177.65,-53.26719866,-25.29070085,47.58792641,-7.98503138
177.77,-32.28485395,-13.98824891,51.08503161,-7.98503138
177.89,48.14747699,4.30835614,-47.89571933,-7.98503138
178.02,45.46173733,5.119664378,25.29070085,-7.908529213
178.14,20.98234471,-22.0454679,-38.46764152,-7.908529213
178.31,6.994095805,-36.03365951,45.46173733,-7.908529213
178.43,52.45583313,21.79365295,4.30835614,-8.153682098
178.55,-33.34791985,13.17688337,-35.22235127,-8.153682098
178.68,9.428077815,36.03365951,-2.126189082,-8.475328723
178.8,-38.71939918,3.748862854,28.5359911,-8.398829794
178.92,-18.5483627,-45.20997967,-18.5483627,-8.398829794
179.04,-15.86262304,-48.70702757,6.994095805,-8.398829794
179.17,-16.67398857,28.22825547,-25.29070085,-8.322330361
179.34,37.65633328,-33.90747043,16.67398857,-8.567474488
179.46,5.371479329,29.03956371,29.85087194,-8.567474488
179.58,-40.090258,-42.77599766,20.17103647,-8.322330361
179.71,-46.27304556,55.95293833,47.89571933,-8.078050378
179.83,-52.45583313,-47.33616875,35.5300869,-8.078050378
179.95,-24.47939261,28.78774875,49.77009347,-8.078050378
180.08,-45.46173733,-48.14747699,-44.39861414,-8.078050378
180.25,-41.15338118,-48.14747699,16.67398857,-8.078050378
180.37,-40.34207295,-41.15338118,-26.35382404,-8.322330361
180.49,-26.35382404,0,20.17103647,-8.322330361
180.62,35.78190186,0,-26.10200909,-8.245830422
180.74,-43.83912085,17.48529681,6.182787567,-8.245830422
180.86,53.26719866,51.64452489,-34.15922808,-8.245830422
180.98,0.811308238,-36.59321009,7.805404043,-8.245830422
181.11,18.29660505,-10.23938605,1.622616476,-8.000679488
181.28,32.28485395,-52.20407548,12.11381748,-8.245830422
181.4,-13.98824891,42.21644708,-6.182787567,-8.245830422
181.52,-21.79365295,57.01600422,-3.497047903,-8.169329978
181.65,36.84496775,27.16513228,50.83321665,-8.245830422
181.77,54.33026456,-9.67983547,-8.616769577,-8.169329978
181.89,-4.30835614,19.10791328,-54.0785069,-8.245830422
182.01,-34.97059362,2.433924714,14.24000656,-8.245830422
182.14,-27.16513228,26.91337462,-54.88981514,-7.924177425
182.31,36.59321009,40.090258,-19.35972824,-7.924177425
182.43,-25.5425158,-51.64452489,38.21582657,-8.169329978
182.56,47.0843538,-46.27304556,-33.5997348,-7.847674857
182.68,-36.84496775,-43.5873059,49.51833581,-7.847674857
182.8,25.29070085,-50.581459,-13.42869832,-7.847674857
182.93,-44.65042909,57.01600422,30.41042253,-7.847674857
183.05,30.66218018,11.5542669,23.66808438,-7.847674857
183.17,-2.433924714,22.0454679,-42.52424001,-8.092829029
183.34,19.35972824,6.182787567,-35.78190186,-8.016327575
183.46,10.49114371,0,8.616769577,-8.016327575
183.59,-16.67398857,-3.497047903,28.78774875,-8.261478178
183.71,-50.83321665,-38.46764152,56.76424657,-8.261478178
183.83,8.616769577,-4.30835614,-22.0454679,-8.261478178
183.96,8.616769577,36.84496775,23.41626942,-8.184977837
184.08,35.78190186,-43.5873059,-36.84496775,-8.506623593
184.24,52.45583313,-9.428077815,41.96468942,-8.261478178
184.37,-27.97644052,-30.41042253,45.71355228,-8.184977837
184.49,20.17103647,36.03365951,-23.41626942,-8.184977837
184.61,50.83321665,15.86262304,-53.26719866,-8.184977837
184.74,36.84496775,-48.95878523,41.15338118,-8.184977837
184.86,19.35972824,-16.67398857,43.83912085,-8.109346322
184.98,-49.77009347,-54.33026456,49.77009347,-7.8641925
185.11,-27.97644052,-40.34207295,52.20407548,-7.8641925
185.27,52.45583313,-19.35972824,42.77599766,-7.8641925
185.4,7.805404043,25.29070085,12.36557513,-7.8641925
185.52,32.28485395,-16.67398857,8.057218994,-7.619033489
185.64,-30.66218018,-30.66218018,-30.41042253,-7.786820181
185.77,-6.994095805,53.26719866,-31.22173076,-7.786820181
185.89,-20.98234471,47.0843538,56.20469598,-7.786820181
186.01,34.97059362,-29.85087194,33.34791985,-7.786820181
186.13,-9.67983547,6.182787567,16.67398857,-8.032844977
186.3,4.30835614,0.251814951,18.5483627,-8.277125912
186.42,42.77599766,49.21060018,-54.88981514,-8.19714838
186.54,40.090258,39.53070741,48.14747699,-8.19714838
186.66,-18.5483627,-23.41626942,2.433924714,-8.443164462
186.79,39.27894976,44.90218674,26.10200909,-8.19714838
186.91,-31.47348842,-4.056598485,47.0843538,-8.443164462
187.03,-55.95293833,-20.73052976,-24.73120756,-8.19714838
187.16,41.15338118,-9.428077815,34.71877867,-8.19714838
187.33,-39.27894976,-33.09616219,-48.14747699,-8.121516944
187.45,9.67983547,55.14157279,-51.89633984,-7.876363379
187.57,52.45583313,-22.85677614,9.176262864,-7.876363379
187.7,17.48529681,16.42217362,-36.03365951,-7.631204626
187.82,-42.77599766,50.581459,44.90218674,-7.631204626
187.94,54.33026456,53.26719866,12.61739009,-7.554700123
188.06,-24.47939261,-9.67983547,1.874431427,-7.554700123
188.23,25.29070085,-31.47348842,-9.67983547,-7.554700123
188.35,-55.14157279,-46.27304556,-17.23348186,-7.554700123
188.48,38.46764152,55.14157279,51.89633984,-7.554700123
188.6,-19.35972824,14.79955714,2.433924714,-7.723357106
188.72,-39.53070741,42.77599766,-19.61148589,-7.478195115
188.85,39.27894976,55.14157279,21.79365295,-7.723357106
188.97,-17.48529681,43.02781261,-56.76424657,-7.478195115
189.14,-20.17103647,53.51895632,-16.11443799,-7.646853212
189.26,21.79365295,36.03365951,41.71287447,-7.646853212
189.39,3.497047903,-9.428077815,-15.61086538,-7.646853212
189.51,26.35382404,-40.090258,17.17756118,-7.570348812
189.63,-1.622616476,-6.994095805,-19.66746387,-7.570348812
189.76,51.64452489,-26.35382404,-5.62329428,-7.570348812
189.88,-2.685739665,5.119664378,6.238765544,-7.570348812
190,18.29660505,-44.65042909,-13.68051327,-7.325183582
190.19,-48.14747699,33.34791985,44.65042909,-7.570348812
190.31,-37.65633328,-1.622616476,-15.61086538,-7.570348812
190.44,-22.85677614,12.36557513,-45.46173733,-7.325183582
190.56,-54.33026456,22.85677614,26.35382404,-7.493843907
190.68,6.994095805,-7.805404043,16.11443799,-7.570348812
190.81,3.497047903,20.98234471,16.92574623,-7.493843907
190.93,21.79365295,-2.685739665,35.5300869,-7.493843907
191.11,-12.36557513,-34.97059362,-37.0967827,-7.739005568
191.23,7.805404043,-11.30250924,54.58207951,-7.739005568
191.36,3.497047903,-21.79365295,-1.11904387,-7.739005568
191.48,-3.497047903,-19.10791328,45.71355228,-7.98416204
191.6,-27.97644052,10.74295866,19.10791328,-7.907659868
191.73,5.371479329,-45.20997967,-20.98234471,-7.662501777
191.85,4.560171091,-5.931029912,15.0513148,-7.662501777
192.02,-13.98824891,-51.64452489,-19.61148589,-7.417338497
192.15,21.79365295,0.811308238,22.91269682,-7.585997481
192.27,52.45583313,-30.66218018,-17.98886941,-7.585997481
192.39,-27.16513228,25.29070085,-40.34207295,-7.831157191
192.51,22.60496119,-20.17103647,36.84496775,-7.831157191
192.64,-46.52486051,-18.29660505,32.53661161,-7.831157191
192.76,49.77009347,36.03365951,4.811928747,-7.831157191
192.93,-48.95878523,-46.27304556,39.78252236,-7.831157191
193.05,3.497047903,-13.98824891,-40.090258,-7.506015176
193.18,-20.98234471,55.14157279,-12.36557513,-7.585997481
193.3,37.65633328,40.34207295,-26.35382404,-7.506015176
193.42,13.17688337,-32.28485395,-33.34791985,-7.752045936
193.55,-30.66218018,10.49114371,-8.309033945,-7.752045936
193.7,-5.371479329,48.14747699,-38.15990589,-7.996332793
193.87,31.47348842,8.057218994,-23.41626942,-7.996332793
193.99,34.97059362,-36.59321009,16.92574623,-7.919830702
194.11,-30.66218018,48.14747699,4.560171091,-7.919830702
194.23,-41.15338118,41.96468942,33.34791985,-7.919830702
194.36,-20.98234471,38.46764152,-33.09616219,-7.675542231
194.48,-27.97644052,-37.65633328,-25.29070085,-7.675542231
194.6,13.98824891,-23.66808438,24.47939261,-7.919830702
194.73,-13.98824891,-44.65042909,-34.15922808,-7.598168652
194.9,-41.15338118,10.49114371,35.78190186,-7.844197455
195.02,5.119664378,44.65042909,49.51833581,-8.089351701
195.15,-43.02781261,-35.78190186,-43.53138522,-8.012850224
195.27,54.0785069,-42.77599766,-41.90871145,-8.012850224
195.39,35.78190186,26.35382404,-39.78252236,-8.012850224
195.52,34.15922808,-23.41626942,-31.22173076,-8.012850224
195.64,-43.5873059,-38.21582657,41.90871145,-8.012850224
195.76,36.03365951,-17.23348186,-46.32902354,-7.936348241
195.89,16.67398857,1.874431427,40.84564555,-7.858976404
196.05,42.77599766,-21.79365295,-36.59321009,-7.858976404
196.17,53.26719866,20.17103647,-33.34791985,-7.537312665
196.3,-8.868527232,4.30835614,32.59258958,-7.537312665
196.42,19.91922152,26.91337462,32.08901698,-7.706839263
196.54,40.090258,23.41626942,-34.1033074,-7.460807542
196.67,16.67398857,-16.67398857,-41.15338118,-7.460807542
196.79,-16.42217362,19.35972824,51.33678926,-7.460807542
196.91,32.53661161,25.5425158,-35.27832925,-7.460807542
197.04,16.67398857,-26.10200909,-19.66746387,-7.14000215
197.2,32.28485395,20.17103647,-39.83850034,-7.14000215
197.32,-39.53070741,55.95293833,50.83321665,-7.14000215
197.44,-37.90809094,-50.83321665,40.64980858,-7.385171299
197.57,-51.08503161,19.10791328,-32.22887598,-7.553830751
197.69,-21.23410237,25.29070085,-42.46826203,-7.553830751
197.81,18.29660505,55.14157279,-11.30250924,-7.553830751
197.94,-0.811308238,57.01600422,57.26781917,-7.721618387
198.1,-36.59321009,-20.73052976,-9.987571102,-7.798991141
198.23,-12.11381748,17.73705446,-30.15860757,-7.721618387
198.35,-0.811308238,22.0454679,37.0967827,-7.721618387
198.47,24.47939261,8.868527232,-8.616769577,-7.721618387
198.6,-30.66218018,12.36557513,-24.73120756,-7.645983847
198.72,-2.685739665,20.17103647,19.41564892,-7.891142287
198.84,-29.85087194,-44.65042909,11.10667227,-7.891142287
198.97,22.60496119,7.805404043,-2.629761688,-7.891142287
199.09,-9.67983547,0,50.581459,-7.891142287
199.26,-18.29660505,47.33616875,-24.78712825,-7.891142287
199.39,-4.30835614,-49.77009347,-38.77537715,-7.56861007
199.51,-34.15922808,-34.97059362,16.11443799,-7.323444803
199.64,-50.83321665,-48.95878523,55.39338775,-7.323444803
199.76,21.79365295,-39.27894976,42.21644708,-7.323444803
199.88,28.78774875,-49.77009347,48.95878523,-7.323444803
200.01,-40.34207295,-41.96468942,-0.251814951,-7.56861007
200.13,-12.36557513,34.97059362,48.70702757,-7.56861007
200.3,32.28485395,-27.97644052,45.46173733,-7.738136209
200.42,6.994095805,-31.47348842,-24.47939261,-7.661632413
200.55,-39.27894976,-38.46764152,-36.84496775,-7.661632413
200.67,-28.78774875,13.98824891,-57.01600422,-7.661632413
200.8,-6.994095805,6.994095805,-4.30835614,-7.661632413
200.92,55.95293833,-53.26719866,-37.40451833,-7.661632413
201.04,-20.17103647,-33.09616219,5.371479329,-7.661632413
201.17,-43.83912085,-46.27304556,19.10791328,-7.906790522
201.34,-29.03956371,48.95878523,-38.97121413,-7.661632413
201.46,33.90747043,-55.14157279,1.930352108,-7.585128111
201.58,53.26719866,9.67983547,-27.41694723,-7.585128111
201.7,41.15338118,-42.77599766,-17.23348186,-7.585128111
201.83,41.15338118,-52.45583313,52.95940574,-7.585128111
201.95,-48.95878523,-24.47939261,1.314880844,-7.585128111
202.07,-52.45583313,-25.29070085,-41.71287447,-7.508623303
202.2,-38.46764152,-36.59321009,40.34207295,-7.263456767
202.37,52.45583313,-5.931029912,26.35382404,-7.508623303
202.5,49.77009347,36.03365951,-55.95293833,-7.677280958
202.62,-54.33026456,-1.622616476,-1.063123189,-7.677280958
202.74,14.79955714,12.36557513,-51.08503161,-7.922438736
202.87,-51.64452489,-14.79955714,-32.53661161,-7.845066806
202.99,41.96468942,-48.14747699,20.17103647,-7.845066806
203.11,-44.65042909,-47.33616875,-6.994095805,-7.845066806
203.24,-29.85087194,18.29660505,28.78774875,-7.845066806
203.4,8.616769577,38.46764152,-54.33026456,-7.845066806
203.53,42.77599766,-51.64452489,-0.251814951,-7.523402681
203.65,-41.15338118,24.47939261,51.39276724,-7.523402681
203.77,13.98824891,-4.30835614,-9.67983547,-7.600776759
203.9,17.48529681,-22.60496119,-18.29660505,-7.523402681
204.02,-34.15922808,-29.59911429,1.874431427,-7.523402681
204.15,39.27894976,-56.76424657,43.83912085,-7.27910585
204.27,49.77009347,-41.96468942,57.01600422,-7.27910585
204.39,-9.67983547,6.994095805,6.182787567,-7.447766846
204.51,-11.30250924,30.66218018,55.39338775,-7.447766846
204.64,53.51895632,12.36557513,10.99477361,-7.692929481
204.76,26.35382404,-19.10791328,-39.83850034,-7.692929481
204.88,17.48529681,-42.77599766,-38.21582657,-7.616425386
205.01,56.76424657,55.14157279,-45.20997967,-7.616425386
205.13,-8.868527232,-41.96468942,15.86262304,-7.861584452
205.25,-43.02781261,-52.45583313,-1.314880844,-7.861584452
205.37,-36.03365951,-20.98234471,-4.25243546,-7.784212116
205.54,29.59911429,9.67983547,23.97582001,-7.784212116
205.66,53.26719866,19.35972824,-2.126189082,-8.030236968
205.79,38.46764152,-46.27304556,8.616769577,-8.030236968
205.91,16.67398857,6.182787567,22.85677614,-8.030236968
206.03,-46.27304556,-31.47348842,51.89633984,-7.784212116
206.15,-42.77599766,51.64452489,26.35382404,-7.708577984
206.28,13.98824891,-4.30835614,7.553646388,-7.708577984
206.4,-51.64452489,-35.78190186,55.70112338,-7.708577984
206.57,45.46173733,3.497047903,-3.497047903,-7.708577984
206.69,10.49114371,-12.36557513,14.24000656,-7.708577984
206.81,52.45583313,12.92512572,-20.73052976,-7.632073992
206.93,-30.66218018,15.61086538,-3.245290247,-7.632073992
207.06,-9.67983547,27.97644052,-14.79955714,-7.876363379
207.18,-2.685739665,-15.61086538,-5.371479329,-7.800729849
207.31,53.26719866,56.20469598,-36.03365951,-7.800729849
207.43,5.119664378,-41.71287447,27.97644052,-7.800729849
207.59,-36.84496775,55.39338775,47.33616875,-7.724226466
207.72,27.97644052,-17.23348186,53.51895632,-7.724226466
207.84,41.15338118,-12.92512572,-40.090258,-7.724226466
207.97,27.16513228,22.85677614,42.77599766,-7.724226466
208.09,13.17688337,-38.46764152,53.26719866,-7.646853212
208.21,-24.47939261,35.78190186,-52.45583313,-7.646853212
208.33,-44.65042909,28.78774875,-51.64452489,-7.646853212
208.46,-16.67398857,38.46764152,-9.931650421,-7.646853212
208.62,-2.685739665,-16.67398857,-41.65695379,-7.326052972
208.75,25.29070085,-29.85087194,47.64390438,-7.571218183
208.87,-16.67398857,-37.65633328,33.09616219,-7.571218183
208.99,-27.97644052,-21.79365295,-12.92512572,-7.571218183
209.12,16.67398857,20.17103647,-0.559550583,-7.571218183
209.24,20.98234471,42.77599766,51.64452489,-7.739874926
209.36,-33.34791985,-32.53661161,0.559550583,-7.571218183
209.49,18.29660505,-23.66808438,-19.10791328,-7.494713284
209.65,-34.97059362,43.02781261,-41.20930187,-7.739874926
209.77,39.27894976,-2.433924714,41.65695379,-7.739874926
209.9,19.91922152,46.52486051,-5.931029912,-7.739874926
210.02,-15.0513148,15.0513148,0,-7.663371141
210.14,35.78190186,18.5483627,40.34207295,-7.663371141
210.26,-9.67983547,-11.30250924,-50.83321665,-7.663371141
210.39,-9.67983547,0,-2.126189082,-7.58686685
210.51,55.95293833,-48.95878523,-1.314880844,-7.58686685
210.68,55.14157279,-12.11381748,-23.66808438,-7.832026542
210.8,-48.95878523,-8.616769577,50.02190842,-7.832026542
210.92,-34.15922808,40.34207295,8.057218994,-7.832026542
211.05,-26.35382404,-42.77599766,-28.78774875,-7.755523365
211.17,-8.868527232,51.64452489,34.15922808,-8.000679488
211.29,-36.84496775,-20.17103647,54.0785069,-8.000679488
211.42,18.29660505,-26.35382404,42.52424001,-7.924177425
211.54,20.98234471,-20.17103647,52.20407548,-8.000679488
211.71,-53.26719866,-46.27304556,48.14747699,-7.755523365
211.83,-21.79365295,-56.76424657,-30.41042253,-7.678150321
211.95,34.97059362,-45.46173733,-30.41042253,-7.678150321
212.08,-29.85087194,-38.46764152,-23.66808438,-7.924177425
212.2,-33.34791985,-39.27894976,-10.49114371,-7.924177425
212.33,56.76424657,36.84496775,17.48529681,-7.924177425
212.45,-26.35382404,-14.79955714,-3.748862854,-7.846805507
212.58,8.616769577,20.17103647,22.35320353,-8.092829029
212.74,-50.83321665,-53.26719866,-24.73120756,-7.846805507
212.86,34.97059362,-28.78774875,11.30250924,-7.770302428
212.99,55.14157279,-34.97059362,-18.29660505,-8.015458237
213.11,-17.48529681,21.79365295,-19.35972824,-7.770302428
213.23,-41.15338118,53.26719866,32.033039,-8.015458237
213.35,31.47348842,10.49114371,-14.79955714,-7.770302428
213.48,50.83321665,12.36557513,-17.54121749,-7.770302428
213.6,5.371479329,-5.931029912,19.55556521,-7.770302428
213.76,-2.685739665,-22.60496119,-7.301831437,-7.694668205
213.89,-53.51895632,-53.26719866,-5.119664378,-7.694668205
214.01,43.5873059,26.35382404,-8.057218994,-7.938956272
214.13,-13.17688337,-53.26719866,18.0447901,-8.67439743
214.26,-30.66218018,45.46173733,-28.48001312,-8.67439743
214.38,29.59911429,40.090258,-26.85739665,-7.938956272
214.5,-35.22235127,-5.371479329,36.90094572,-7.862453801
214.62,2.433924714,-41.96468942,-11.80608185,-7.862453801
214.79,0.811308238,-36.59321009,15.0513148,-7.862453801
214.91,-37.65633328,-22.60496119,-47.0843538,-7.862453801
215.04,-31.47348842,32.53661161,52.70764808,-7.862453801
215.16,40.34207295,-40.90156623,52.95940574,-7.786820181
215.28,-15.61086538,-12.92512572,-53.82669195,-7.786820181
215.41,-39.27894976,19.35972824,33.34791985,-8.031975641
215.53,-48.14747699,-31.47348842,0.559550583,-7.786820181
215.65,47.0843538,11.30250924,-19.86330084,-8.031975641
215.82,-52.70764808,-50.02190842,50.63737968,-8.031975641
215.94,-39.53070741,-15.86262304,-2.378004033,-7.955473784
216.07,-37.65633328,10.49114371,-44.39861414,-8.199756351
216.19,-34.97059362,-36.59321009,56.70826859,-7.955473784
216.31,-45.46173733,14.24000656,-33.40389782,-7.955473784
216.44,-17.48529681,42.21644708,-54.63800019,-7.878971423
216.56,-10.49114371,1.874431427,-40.90156623,-7.878971423
216.68,20.98234471,-4.30835614,38.46764152,-7.878971423
216.81,-44.65042909,-28.78774875,-27.97644052,-7.878971423
216.93,56.76424657,27.16513228,-10.49114371,-8.124124933
217.05,36.59321009,-9.67983547,6.74233815,-8.124124933
217.18,-45.71355228,30.41042253,-48.90286455,-8.124124933
217.3,-14.24000656,47.89571933,28.03241849,-8.124124933
217.42,-1.874431427,11.30250924,34.71877867,-8.124124933
217.54,-34.97059362,43.83912085,14.24000656,-8.289296358
217.67,-3.497047903,-40.090258,-41.71287447,-8.289296358
217.79,35.78190186,-1.622616476,-10.49114371,-8.044146344
217.96,53.26719866,43.02781261,-29.59911429,-8.044146344
218.08,32.28485395,22.0454679,-36.34139514,-8.044146344
218.2,38.46764152,-50.581459,-2.993475296,-8.289296358
218.33,-32.28485395,29.03956371,18.80017765,-8.044146344
218.45,-18.29660505,-33.09616219,41.15338118,-8.044146344
218.57,0,27.16513228,-35.22235127,-8.044146344
218.69,-30.66218018,-55.14157279,-26.6055817,-7.967644568
218.82,-50.83321665,-20.17103647,-7.497668411,-8.044146344
218.98,53.26719866,-41.96468942,-16.11443799,-8.212796201
219.11,48.95878523,13.17688337,8.616769577,-8.212796201
219.23,48.95878523,34.15922808,42.21644708,-8.212796201
219.35,-47.33616875,0,11.5542669,-7.967644568
219.47,12.11381748,10.49114371,15.86262304,-7.967644568
219.6,-8.868527232,-38.46764152,-40.090258,-7.722487747
219.72,4.30835614,51.64452489,16.92574623,-7.722487747
219.84,55.95293833,-55.95293833,38.71939918,-7.645983847
220,14.79955714,16.67398857,-24.47939261,-7.891142287
220.13,22.60496119,-25.29070085,-7.245910756,-7.891142287
220.25,-22.0454679,-28.78774875,-32.78842656,-7.645983847
220.38,54.0785069,-4.30835614,-50.27366607,-7.891142287
220.5,-27.16513228,-25.29070085,53.26719866,-8.136295539
220.62,-38.46764152,-39.27894976,-18.0447901,-8.136295539
220.75,6.994095805,-32.28485395,-56.51243162,-8.136295539
220.87,-41.15338118,-56.76424657,36.84496775,-8.136295539
221.04,10.49114371,33.34791985,56.76424657,-8.060663706
221.16,-31.47348842,-18.29660505,-32.53661161,-8.060663706
221.28,52.45583313,41.15338118,-57.01600422,-8.060663706
221.41,-30.66218018,16.67398857,-48.95878523,-8.060663706
221.53,-34.15922808,40.34207295,-5.119664378,-8.304074739
221.65,28.78774875,33.34791985,-19.35972824,-8.304074739
221.78,-40.34207295,6.182787567,9.428077815,-8.304074739
221.9,35.78190186,34.15922808,13.17688337,-8.304074739
222.06,-16.67398857,-52.45583313,30.66218018,-8.304074739
222.18,-19.35972824,6.994095805,45.20997967,-8.304074739
222.31,3.245290247,42.77599766,57.0719822,-8.228444002
222.43,7.553646388,-15.0513148,-8.812606551,-8.228444002
222.55,-34.41104303,-36.03365951,5.427457306,-8.228444002
222.68,50.581459,-16.67398857,-17.23348186,-8.228444002
222.8,-17.48529681,29.85087194,42.1605264,-8.304074739
222.92,13.17688337,-45.20997967,24.67522959,-8.472720813
223.09,-45.46173733,-32.84434724,47.02843312,-8.228444002
223.21,55.14157279,-28.5359911,38.97121413,-8.228444002
223.33,34.15922808,-30.41042253,55.39338775,-8.397091176
223.45,44.65042909,-1.622616476,-37.40451833,-8.962997516
223.58,34.97059362,-7.805404043,-30.66218018,-9.131633998
223.7,32.28485395,-16.67398857,-19.61148589,-8.88737108
223.82,12.11381748,33.90747043,43.89504153,-8.472720813
223.95,15.61086538,41.71287447,9.987571102,-8.472720813
224.11,-36.84496775,43.5873059,15.61086538,-8.397091176
224.23,39.27894976,-48.95878523,-55.95293833,-8.641364431
224.36,-20.17103647,47.33616875,39.53070741,-8.641364431
224.48,-30.66218018,-28.78774875,-30.41042253,-8.641364431
224.6,42.77599766,-39.27894976,-9.67983547,-8.641364431
224.73,-33.34791985,-2.433924714,-25.5425158,-8.641364431
224.85,-16.67398857,-46.02128791,28.78774875,-8.397091176
224.98,41.96468942,2.937554616,31.47348842,-8.397091176
225.14,-50.83321665,-36.59321009,-18.5483627,-8.397091176
225.27,15.61086538,19.35972824,16.42217362,-8.397091176
225.39,4.30835614,8.868527232,18.29660505,-8.565735896
225.51,3.497047903,23.66808438,41.96468942,-9.131633998
225.63,41.96468942,-43.83912085,-57.01600422,-9.300268026
225.75,-22.85677614,30.41042253,39.83850034,-9.545391461
225.88,-46.52486051,-8.057218994,41.71287447,-9.790509711
226,-22.85677614,-6.182787567,-55.95293833,-10.03475359
226.16,32.28485395,16.67398857,-23.41626942,-10.03475359
226.29,-15.86262304,-18.29660505,-12.92512572,-10.20424365
226.41,-33.34791985,-35.78190186,-4.056598485,-10.20424365
226.54,55.95293833,47.33616875,53.77077127,-10.44934796
226.66,51.64452489,54.33026456,-28.5359911,-10.20424365
226.78,-27.97644052,36.84496775,9.67983547,-10.44934796
226.91,41.96468942,-12.92512572,-30.66218018,-10.3719929
227.03,21.79365295,23.91984203,53.26719866,-10.44934796
